X [s];IL: EMG 1 [V];X [s];LON: EMG 2 [V];X [s];ACC: ACC.X 3 [g];X [s];ACC: ACC.Y 3 [g];X [s];ACC: ACC.Z 3 [g];X [s];ACC: GYRO.X 3 [°/s];X [s];ACC: GYRO.Y 3 [°/s];X [s];ACC: GYRO.Z 3 [°/s]
0;0;0;0;0;0;0;0;0;0;0;0;0;0;0;0
0.000465517;0;0.000465517;0;0.00675;0;0.00675;0;0.00675;0;0.00675;0;0.00675;0;0.00675;0
0.000931034;0;0.000931034;0;0.0135;0;0.0135;0;0.0135;0;0.0135;0;0.0135;0;0.0135;0
0.001396552;0;0.001396552;0;0.02025;0;0.02025;0;0.02025;0;0.02025;0;0.02025;0;0.02025;0
0.001862069;0;0.001862069;0;0.027;0;0.027;0;0.027;0;0.027;0;0.027;0;0.027;0
0.002327586;0;0.002327586;0;0.03375;0;0.03375;0;0.03375;0;0.03375;0;0.03375;0;0.03375;0
0.002793103;0;0.002793103;0;0.0405;0;0.0405;0;0.0405;0;0.0405;0;0.0405;0;0.0405;0
0.003258621;0;0.003258621;0;0.04725;0;0.04725;0;0.04725;0;0.04725;0;0.04725;0;0.04725;0
0.003724138;0;0.003724138;0;0.054;0;0.054;0;0.054;0;0.054;0;0.054;0;0.054;0
0.004189655;0;0.004189655;0;0.06075;0;0.06075;0;0.06075;0;0.06075;0;0.06075;0;0.06075;0
0.004655172;0;0.004655172;0;0.0675;0;0.0675;0;0.0675;0;0.0675;0;0.0675;0;0.0675;0
0.00512069;0;0.00512069;0;0.07425;0;0.07425;0;0.07425;0;0.07425;0;0.07425;0;0.07425;0
0.005586207;0;0.005586207;0;0.081;0;0.081;0;0.081;0;0.081;0;0.081;0;0.081;0
0.006051724;0;0.006051724;0;0.08775;0;0.08775;0;0.08775;0;0.08775;0;0.08775;0;0.08775;0
0.006517241;0;0.006517241;0;0.0945;0;0.0945;0;0.0945;0;0.0945;0;0.0945;0;0.0945;0
0.006982759;0;0.006982759;0;0.10125;0;0.10125;0;0.10125;0;0.10125;0;0.10125;0;0.10125;0
0.007448276;0;0.007448276;0;0.108;0;0.108;0;0.108;0;0.108;0;0.108;0;0.108;0
0.007913793;0;0.007913793;0;0.11475;0;0.11475;0;0.11475;0;0.11475;0;0.11475;0;0.11475;0
0.00837931;0;0.00837931;0;0.1215;0.1328125;0.1215;-0.631347656;0.1215;0.6015625;0.1215;64.75609589;0.1215;6.463414669;0.1215;-12.31707382
0.008844828;0;0.008844828;0;0.12825;0.129394531;0.12825;-0.623046875;0.12825;0.606445313;0.12825;66.34146118;0.12825;6.097560883;0.12825;-12.56097603
0.009310345;0;0.009310345;0;0.135;0.132324219;0.135;-0.616699219;0.135;0.603027344;0.135;67.86585236;0.135;5.975609779;0.135;-12.68292713
0.009775862;0;0.009775862;0;0.14175;0.131347656;0.14175;-0.606933594;0.14175;0.603027344;0.14175;69.14633942;0.14175;5.609755993;0.14175;-12.5
0.010241379;0;0.010241379;0;0.1485;0.131835938;0.1485;-0.602539063;0.1485;0.618652344;0.1485;70.67073059;0.1485;5.548780441;0.1485;-12.3780489
0.010706897;0;0.010706897;0;0.15525;0.137207031;0.15525;-0.58984375;0.15525;0.639648438;0.15525;71.89024353;0.15525;5.548780441;0.15525;-12.25609779
0.011172414;0;0.011172414;0;0.162;0.133789063;0.162;-0.577636719;0.162;0.647460938;0.162;73.10975647;0.162;5.609755993;0.162;-12.31707382
0.011637931;0;0.011637931;0;0.16875;0.130371094;0.16875;-0.560546875;0.16875;0.642089844;0.16875;74.32926941;0.16875;5.670732021;0.16875;-12.68292713
0.012103448;0;0.012103448;0;0.1755;0.135253906;0.1755;-0.546875;0.1755;0.637207031;0.1755;75.42683411;0.1755;6.097560883;0.1755;-12.80487823
0.012568966;0;0.012568966;0;0.18225;0.131835938;0.18225;-0.538574219;0.18225;0.628417969;0.18225;77.07317352;0.18225;6.341463566;0.18225;-12.56097603
0.013034483;0;0.013034483;0;0.189;0.131347656;0.189;-0.534667969;0.189;0.61328125;0.189;79.26829529;0.189;5.975609779;0.189;-12.43902493
0.0135;0;0.0135;0;0.19575;0.132324219;0.19575;-0.526855469;0.19575;0.602050781;0.19575;80.30487823;0.19575;5.914634228;0.19575;-12.31707382
0.013965517;0;0.013965517;0;0.2025;0.132324219;0.2025;-0.522949219;0.2025;0.625488281;0.2025;82.68292999;0.2025;5.853658676;0.2025;-11.89024448
0.014431034;0;0.014431034;0;0.20925;0.136230469;0.20925;-0.51953125;0.20925;0.630371094;0.20925;85.12195587;0.20925;5.426829338;0.20925;-11.70731735
0.014896552;0;0.014896552;0;0.216;0.133300781;0.216;-0.516601563;0.216;0.630859375;0.216;87.37805176;0.216;5;0.216;-12.13414669
0.015362069;0;0.015362069;0;0.22275;0.140625;0.22275;-0.509765625;0.22275;0.652832031;0.22275;89.14634705;0.22275;4.756097794;0.22275;-12.92682934
0.015827586;0;0.015827586;0;0.2295;0.158203125;0.2295;-0.490234375;0.2295;0.686523438;0.2295;90.36585236;0.2295;4.085365772;0.2295;-13.2926836
0.016293103;0;0.016293103;0;0.23625;0.156738281;0.23625;-0.458496094;0.23625;0.69921875;0.23625;91.28048706;0.23625;3.841463566;0.23625;-13.65853691
0.016758621;0;0.016758621;0;0.243;0.154785156;0.243;-0.4296875;0.243;0.688964844;0.243;91.95122528;0.243;3.658536673;0.243;-14.14634132
0.017224138;0;0.017224138;0;0.24975;0.151367188;0.24975;-0.415039063;0.24975;0.675292969;0.24975;92.74390411;0.24975;3.963414669;0.24975;-14.51219559
0.017689655;0;0.017689655;0;0.2565;0.149902344;0.2565;-0.404296875;0.2565;0.666503906;0.2565;93.4146347;0.2565;4.756097794;0.2565;-15.24390316
0.018155172;0;0.018155172;0;0.26325;0.151367188;0.26325;-0.400390625;0.26325;0.666015625;0.26325;94.26829529;0.26325;5.182927132;0.26325;-15.60975647
0.01862069;0;0.01862069;0;0.27;0.155761719;0.27;-0.397949219;0.27;0.66796875;0.27;94.5121994;0.27;5.060975552;0.27;-15.85365868
0.019086207;0;0.019086207;0;0.27675;0.161132813;0.27675;-0.395507813;0.27675;0.662109375;0.27675;95.67073059;0.27675;5.121951103;0.27675;-15.9146347
0.019551724;0;0.019551724;0;0.2835;0.1640625;0.2835;-0.389160156;0.2835;0.652832031;0.2835;96.82926941;0.2835;5.243902683;0.2835;-15.7926836
0.020017241;0;0.020017241;0;0.29025;0.160644531;0.29025;-0.372070313;0.29025;0.654296875;0.29025;97.62195587;0.29025;5.548780441;0.29025;-15.6707325
0.020482759;0;0.020482759;0;0.297;0.160644531;0.297;-0.355957031;0.297;0.684570313;0.297;99.20732117;0.297;6.036585331;0.297;-15.54878044
0.020948276;0;0.020948276;0;0.30375;0.151367188;0.30375;-0.34375;0.30375;0.699707031;0.30375;100.6707306;0.30375;6.219512463;0.30375;-16.34146309
0.021413793;0;0.021413793;0;0.3105;0.151367188;0.3105;-0.3359375;0.3105;0.691894531;0.3105;102.1341476;0.3105;6.524390221;0.3105;-17.01219559
0.02187931;0;0.02187931;0;0.31725;0.147949219;0.31725;-0.319824219;0.31725;0.685058594;0.31725;103.2926865;0.31725;6.402439117;0.31725;-17.74390221
0.022344828;0;0.022344828;0;0.324;0.151855469;0.324;-0.304199219;0.324;0.707519531;0.324;104.3902435;0.324;6.646341801;0.324;-17.80487823
0.022810345;0;0.022810345;0;0.33075;0.15234375;0.33075;-0.285644531;0.33075;0.709960938;0.33075;105.3048782;0.33075;6.341463566;0.33075;-18.10975647
0.023275862;0;0.023275862;0;0.3375;0.160644531;0.3375;-0.272460938;0.3375;0.698242188;0.3375;105.9146347;0.3375;6.524390221;0.3375;-17.80487823
0.023741379;0;0.023741379;0;0.34425;0.164550781;0.34425;-0.260253906;0.34425;0.686523438;0.34425;106.4024429;0.34425;6.402439117;0.34425;-17.86585426
0.024206897;0;0.024206897;0;0.351;0.16796875;0.351;-0.243164063;0.351;0.672363281;0.351;106.8902435;0.351;6.463414669;0.351;-18.10975647
0.024672414;0;0.024672414;0;0.35775;0.165039063;0.35775;-0.234863281;0.35775;0.663085938;0.35775;107.2561035;0.35775;6.707317352;0.35775;-18.35365868
0.025137931;0;0.025137931;0;0.3645;0.166503906;0.3645;-0.22265625;0.3645;0.6328125;0.3645;107.9268341;0.3645;7.560975552;0.3645;-18.1707325
0.025603448;0;0.025603448;0;0.37125;0.167480469;0.37125;-0.209472656;0.37125;0.683105469;0.37125;108.8414688;0.37125;8.719511986;0.37125;-18.1707325
0.026068966;0;0.026068966;0;0.378;0.175292969;0.378;-0.198730469;0.378;0.751464844;0.378;110.4268341;0.378;9.024390221;0.378;-18.4146347
0.026534483;0;0.026534483;0;0.38475;0.168457031;0.38475;-0.196289063;0.38475;0.770507813;0.38475;111.3414688;0.38475;8.658536911;0.38475;-19.57317162
0.027;0;0.027;0;0.3915;0.16015625;0.3915;-0.178710938;0.3915;0.75;0.3915;111.8292694;0.3915;8.536585808;0.3915;-21.09756088
0.027465517;0;0.027465517;0;0.39825;0.152832031;0.39825;-0.151367188;0.39825;0.729003906;0.39825;111.8292694;0.39825;8.841464043;0.39825;-22.68292809
0.027931034;0;0.027931034;0;0.405;0.15234375;0.405;-0.124511719;0.405;0.7109375;0.405;111.8902435;0.405;9.207317352;0.405;-23.29268265
0.028396552;0;0.028396552;0;0.41175;0.139648438;0.41175;-0.104980469;0.41175;0.692382813;0.41175;111.646347;0.41175;9.390244484;0.41175;-23.1707325
0.028862069;0;0.028862069;0;0.4185;0.126464844;0.4185;-0.096191406;0.4185;0.670898438;0.4185;111.5243912;0.4185;9.573170662;0.4185;-22.62195206
0.029327586;0;0.029327586;0;0.42525;0.123046875;0.42525;-0.092773438;0.42525;0.667480469;0.42525;111.2195129;0.42525;9.695121765;0.42525;-21.28048897
0.029793103;0;0.029793103;0;0.432;0.127441406;0.432;-0.087890625;0.432;0.674804688;0.432;111.4024429;0.432;9.268292427;0.432;-20.36585426
0.030258621;0;0.030258621;0;0.43875;0.140625;0.43875;-0.067382813;0.43875;0.6796875;0.43875;111.3414688;0.43875;9.146341324;0.43875;-20.12195206
0.030724138;0;0.030724138;0;0.4455;0.157714844;0.4455;-0.049804688;0.4455;0.695800781;0.4455;111.1585388;0.4455;8.414634705;0.4455;-19.20731735
0.031189655;0;0.031189655;0;0.45225;0.17578125;0.45225;-0.045898438;0.45225;0.76171875;0.45225;112.5609818;0.45225;7.560975552;0.45225;-18.84146309
0.031655172;0;0.031655172;0;0.459;0.186035156;0.459;-0.03125;0.459;0.802734375;0.459;114.146347;0.459;6.036585331;0.459;-18.1707325
0.03212069;0;0.03212069;0;0.46575;0.183105469;0.46575;-0.013671875;0.46575;0.802246094;0.46575;114.3902435;0.46575;4.695122242;0.46575;-18.84146309
0.032586207;0;0.032586207;0;0.4725;0.18359375;0.4725;0.011230469;0.4725;0.778320313;0.4725;113.5365906;0.4725;4.146341324;0.4725;-19.45121956
0.033051724;0;0.033051724;0;0.47925;0.183105469;0.47925;0.047851563;0.47925;0.75390625;0.47925;112.3780518;0.47925;4.390244007;0.47925;-19.93902397
0.033517241;0;0.033517241;0;0.486;0.1796875;0.486;0.071289063;0.486;0.748535156;0.486;110.9756088;0.486;4.390244007;0.486;-19.69512177
0.033982759;0;0.033982759;0;0.49275;0.1796875;0.49275;0.079589844;0.49275;0.741699219;0.49275;110.3048782;0.49275;4.390244007;0.49275;-19.51219559
0.034448276;0;0.034448276;0;0.4995;0.173828125;0.4995;0.086914063;0.4995;0.725585938;0.4995;109.5121994;0.4995;5;0.4995;-18.84146309
0.034913793;0;0.034913793;0;0.50625;0.170898438;0.50625;0.091796875;0.50625;0.719726563;0.50625;108.1707306;0.50625;5.914634228;0.50625;-17.86585426
0.03537931;0;0.03537931;0;0.513;0.164550781;0.513;0.1015625;0.513;0.743164063;0.513;107.0121994;0.513;7.01219511;0.513;-16.95121956
0.035844828;0;0.035844828;0;0.51975;0.164550781;0.51975;0.123535156;0.51975;0.747558594;0.51975;106.5853653;0.51975;7.98780489;0.51975;-16.64634132
0.036310345;0;0.036310345;0;0.5265;0.166015625;0.5265;0.146484375;0.5265;0.734375;0.5265;105.4878082;0.5265;8.902439117;0.5265;-16.28048897
0.036775862;0;0.036775862;0;0.53325;0.167480469;0.53325;0.159667969;0.53325;0.752929688;0.53325;104.8780518;0.53325;9.63414669;0.53325;-15.60975647
0.037241379;0;0.037241379;0;0.54;0.180175781;0.54;0.1640625;0.54;0.794433594;0.54;105;0.54;9.329268456;0.54;-15.18292713
0.037706897;0;0.037706897;0;0.54675;0.181640625;0.54675;0.172851563;0.54675;0.803222656;0.54675;104.8780518;0.54675;8.536585808;0.54675;-14.93902493
0.038172414;0;0.038172414;0;0.5535;0.1796875;0.5535;0.189453125;0.5535;0.793945313;0.5535;103.2926865;0.5535;8.048780441;0.5535;-14.69512272
0.038637931;0;0.038637931;0;0.56025;0.177734375;0.56025;0.215332031;0.56025;0.782226563;0.56025;101.2804871;0.56025;8.231707573;0.56025;-14.81707382
0.039103448;0;0.039103448;0;0.567;0.171875;0.567;0.236816406;0.567;0.775390625;0.567;100.6707306;0.567;8.292682648;0.567;-15.06097603
0.039568966;0;0.039568966;0;0.57375;0.170410156;0.57375;0.249511719;0.57375;0.774414063;0.57375;99.81707764;0.57375;8.719511986;0.57375;-15.54878044
0.040034483;0;0.040034483;0;0.5805;0.171386719;0.5805;0.251464844;0.5805;0.785644531;0.5805;99.32926941;0.5805;8.170731544;0.5805;-15.24390316
0.0405;0;0.0405;0;0.58725;0.166015625;0.58725;0.252929688;0.58725;0.817382813;0.58725;100;0.58725;7.073170662;0.58725;-14.69512272
0.040965517;0;0.040965517;0;0.594;0.168945313;0.594;0.267089844;0.594;0.826660156;0.594;99.63414764;0.594;6.646341801;0.594;-14.51219559
0.041431034;0;0.041431034;0;0.60075;0.169433594;0.60075;0.285644531;0.60075;0.814453125;0.60075;98.53659058;0.60075;6.524390221;0.60075;-14.39024448
0.041896552;0;0.041896552;0;0.6075;0.167480469;0.6075;0.311523438;0.6075;0.803710938;0.6075;97.0121994;0.6075;6.768292904;0.6075;-14.45121956
0.042362069;0;0.042362069;0;0.61425;0.165527344;0.61425;0.327148438;0.61425;0.80078125;0.61425;95.97560883;0.61425;6.890244007;0.61425;-14.57317066
0.042827586;0;0.042827586;0;0.621;0.167480469;0.621;0.336914063;0.621;0.804199219;0.621;95.67073059;0.621;6.402439117;0.621;-13.78048801
0.043293103;0;0.043293103;0;0.62775;0.165039063;0.62775;0.336425781;0.62775;0.806640625;0.62775;94.26829529;0.62775;5.426829338;0.62775;-12.98780537
0.043758621;0;0.043758621;0;0.6345;0.166015625;0.6345;0.339355469;0.6345;0.802246094;0.6345;92.98780823;0.6345;4.878048897;0.6345;-12.25609779
0.044224138;0;0.044224138;0;0.64125;0.176269531;0.64125;0.352050781;0.64125;0.793945313;0.64125;92.31707764;0.64125;4.573170662;0.64125;-11.58536625
0.044689655;0;0.044689655;0;0.648;0.180664063;0.648;0.370117188;0.648;0.798339844;0.648;91.64634705;0.648;4.085365772;0.648;-10.54878044
0.045155172;0;0.045155172;0;0.65475;0.176757813;0.65475;0.381347656;0.65475;0.802246094;0.65475;91.21951294;0.65475;4.390244007;0.65475;-9.268292427
0.04562069;0;0.04562069;0;0.6615;0.170898438;0.6615;0.403808594;0.6615;0.805664063;0.6615;90.54878235;0.6615;3.902439117;0.6615;-7.926829338
0.046086207;0;0.046086207;0;0.66825;0.171386719;0.66825;0.420898438;0.66825;0.802246094;0.66825;89.57317352;0.66825;3.719512224;0.66825;-7.682927132
0.046551724;0;0.046551724;0;0.675;0.174316406;0.675;0.4296875;0.675;0.79296875;0.675;88.90244293;0.675;3.292682886;0.675;-7.317073345
0.047017241;0;0.047017241;0;0.68175;0.176757813;0.68175;0.433105469;0.68175;0.784667969;0.68175;88.23171234;0.68175;2.926829338;0.68175;-7.01219511
0.047482759;0;0.047482759;0;0.6885;0.1796875;0.6885;0.438964844;0.6885;0.768554688;0.6885;87.13414764;0.6885;2.926829338;0.6885;-6.280488014
0.047948276;0;0.047948276;0;0.69525;0.178710938;0.69525;0.446777344;0.69525;0.770019531;0.69525;86.03659058;0.69525;3.292682886;0.69525;-5.670732021
0.048413793;0;0.048413793;0;0.702;0.168945313;0.702;0.459960938;0.702;0.787597656;0.702;85.30487823;0.702;3.048780441;0.702;-4.695122242
0.04887931;0;0.04887931;0;0.70875;0.166992188;0.70875;0.46875;0.70875;0.795410156;0.70875;84.5121994;0.70875;2.378048897;0.70875;-4.939024448
0.049344828;0;0.049344828;0;0.7155;0.17578125;0.7155;0.477539063;0.7155;0.798339844;0.7155;84.14634705;0.7155;2.073170662;0.7155;-5.182927132
0.049810345;0;0.049810345;0;0.72225;0.188964844;0.72225;0.499023438;0.72225;0.803710938;0.72225;83.53659058;0.72225;1.768292665;0.72225;-5.609755993
0.050275862;0;0.050275862;0;0.729;0.192382813;0.729;0.50390625;0.729;0.804199219;0.729;82.80487823;0.729;1.402438998;0.729;-5.853658676
0.050741379;0;0.050741379;0;0.73575;0.191894531;0.73575;0.51171875;0.73575;0.800292969;0.73575;82.13414764;0.73575;0.243902445;0.73575;-5.48780489
0.051206897;0;0.051206897;0;0.7425;0.182128906;0.7425;0.517089844;0.7425;0.791503906;0.7425;80.73171234;0.7425;-0.792682946;0.7425;-4.573170662
0.051672414;0;0.051672414;0;0.74925;0.176269531;0.74925;0.514160156;0.74925;0.781738281;0.74925;79.02439117;0.74925;-1.707317114;0.74925;-4.146341324
0.052137931;0;0.052137931;0;0.756;0.176757813;0.756;0.512207031;0.756;0.77734375;0.756;77.74390411;0.756;-1.768292665;0.756;-4.451219559
0.052603448;0;0.052603448;0;0.76275;0.177734375;0.76275;0.515625;0.76275;0.786132813;0.76275;76.15853882;0.76275;-1.951219559;0.76275;-4.878048897
0.053068966;0;0.053068966;0;0.7695;0.1796875;0.7695;0.525390625;0.7695;0.794921875;0.7695;74.57317352;0.7695;-1.829268336;0.7695;-5.609755993
0.053534483;0;0.053534483;0;0.77625;0.181640625;0.77625;0.548828125;0.77625;0.795898438;0.77625;72.31707764;0.77625;-1.158536553;0.77625;-5.792683125
0.054;0;0.054;0;0.783;0.183105469;0.783;0.568359375;0.783;0.797363281;0.783;70.36585236;0.783;-0.792682946;0.783;-5.731707573
0.054465517;0;0.054465517;0;0.78975;0.186035156;0.78975;0.595703125;0.78975;0.795410156;0.78975;69.75609589;0.78975;-0.609756112;0.78975;-6.158536911
0.054931034;0;0.054931034;0;0.7965;0.189453125;0.7965;0.617675781;0.7965;0.791015625;0.7965;70;0.7965;-1.097561002;0.7965;-6.524390221
0.055396552;0;0.055396552;0;0.80325;0.190917969;0.80325;0.625976563;0.80325;0.79296875;0.80325;69.93902588;0.80325;-1.219512224;0.80325;-6.219512463
0.055862069;0;0.055862069;0;0.81;0.193359375;0.81;0.630371094;0.81;0.788085938;0.81;70.24390411;0.81;-1.524390221;0.81;-6.219512463
0.056327586;0;0.056327586;0;0.81675;0.200195313;0.81675;0.631835938;0.81675;0.791503906;0.81675;70.12195587;0.81675;-1.463414669;0.81675;-6.219512463
0.056793103;0;0.056793103;0;0.8235;0.19921875;0.8235;0.639648438;0.8235;0.791015625;0.8235;69.14633942;0.8235;-1.402438998;0.8235;-6.036585331
0.057258621;0;0.057258621;0;0.83025;0.206542969;0.83025;0.645507813;0.83025;0.784667969;0.83025;67.13414764;0.83025;-1.158536553;0.83025;-5.48780489
0.057724138;0;0.057724138;0;0.837;0.207519531;0.837;0.650878906;0.837;0.78125;0.837;65.12195587;0.837;-0.609756112;0.837;-4.695122242
0.058189655;0;0.058189655;0;0.84375;0.204589844;0.84375;0.668457031;0.84375;0.786132813;0.84375;64.45121765;0.84375;-0.48780489;0.84375;-3.597561121
0.058655172;0;0.058655172;0;0.8505;0.203613281;0.8505;0.685546875;0.8505;0.791992188;0.8505;63.90243912;0.8505;-1.036585331;0.8505;-3.170731783
0.05912069;0;0.05912069;0;0.85725;0.203125;0.85725;0.690917969;0.85725;0.799316406;0.85725;63.53658676;0.85725;-1.341463447;0.85725;-3.170731783
0.059586207;0;0.059586207;0;0.864;0.206542969;0.864;0.693359375;0.864;0.807617188;0.864;63.29268265;0.864;-1.524390221;0.864;-3.231707335
0.060051724;0;0.060051724;0;0.87075;0.20703125;0.87075;0.698730469;0.87075;0.810058594;0.87075;62.62195206;0.87075;-2.195122004;0.87075;-3.353658676
0.060517241;0;0.060517241;0;0.8775;0.2109375;0.8775;0.702148438;0.8775;0.810546875;0.8775;61.76829529;0.8775;-2.256097555;0.8775;-3.841463566
0.060982759;0;0.060982759;0;0.88425;0.219726563;0.88425;0.709960938;0.88425;0.797851563;0.88425;60.60975647;0.88425;-1.951219559;0.88425;-4.878048897
0.061448276;0;0.061448276;0;0.891;0.224609375;0.891;0.720703125;0.891;0.785644531;0.891;60;0.891;-1.402438998;0.891;-5.548780441
0.061913793;0;0.061913793;0;0.89775;0.227539063;0.89775;0.7265625;0.89775;0.776367188;0.89775;59.02439117;0.89775;-0.426829278;0.89775;-5.914634228
0.06237931;0;0.06237931;0;0.9045;0.224609375;0.9045;0.724609375;0.9045;0.771484375;0.9045;57.86585617;0.9045;-0.060975611;0.9045;-6.280488014
0.062844828;0;0.062844828;0;0.91125;0.218261719;0.91125;0.719238281;0.91125;0.760253906;0.91125;57.31707382;0.91125;-0.121951222;0.91125;-6.097560883
0.063310345;0;0.063310345;0;0.918;0.217773438;0.918;0.7265625;0.918;0.760742188;0.918;56.341465;0.918;0.182926834;0.918;-6.036585331
0.063775862;0;0.063775862;0;0.92475;0.21875;0.92475;0.741699219;0.92475;0.765625;0.92475;54.57317352;0.92475;0.670731723;0.92475;-5.914634228
0.064241379;0;0.064241379;0;0.9315;0.21484375;0.9315;0.755371094;0.9315;0.763183594;0.9315;53.35366058;0.9315;1.219512224;0.9315;-5.853658676
0.064706897;0;0.064706897;0;0.93825;0.220703125;0.93825;0.765136719;0.93825;0.75390625;0.93825;53.29268265;0.93825;1.707317114;0.93825;-5.731707573
0.065172414;0;0.065172414;0;0.945;0.229492188;0.945;0.77734375;0.945;0.742675781;0.945;53.4146347;0.945;1.646341443;0.945;-5.853658676
0.065637931;0;0.065637931;0;0.95175;0.229492188;0.95175;0.779296875;0.95175;0.741210938;0.95175;52.80487823;0.95175;1.829268336;0.95175;-5.975609779
0.066103448;0;0.066103448;0;0.9585;0.227050781;0.9585;0.779296875;0.9585;0.751953125;0.9585;52.37805176;0.9585;1.036585331;0.9585;-6.036585331
0.066568966;0;0.066568966;0;0.96525;0.229980469;0.96525;0.775878906;0.96525;0.745117188;0.96525;51.70731735;0.96525;1.036585331;0.96525;-5.975609779
0.067034483;0;0.067034483;0;0.972;0.220703125;0.972;0.770996094;0.972;0.733398438;0.972;50;0.972;0.548780501;0.972;-5.426829338
0.0675;0;0.0675;0;0.97875;0.216308594;0.97875;0.766601563;0.97875;0.733886719;0.97875;48.841465;0.97875;-0.121951222;0.97875;-4.695122242
0.067965517;0;0.067965517;0;0.9855;0.216308594;0.9855;0.770507813;0.9855;0.734375;0.9855;47.92683029;0.9855;-0.365853667;0.9855;-4.451219559
0.068431034;0;0.068431034;0;0.99225;0.219726563;0.99225;0.778320313;0.99225;0.729003906;0.99225;47.19512177;0.99225;-0.48780489;0.99225;-5.548780441
0.068896552;0;0.068896552;0;0.999;0.225097656;0.999;0.782714844;0.999;0.71875;0.999;46.09756088;0.999;0.731707335;0.999;-6.219512463
0.069362069;0;0.069362069;0;1.00575;0.231933594;1.00575;0.787597656;1.00575;0.71484375;1.00575;45;1.00575;1.707317114;1.00575;-6.768292904
0.069827586;0;0.069827586;0;1.0125;0.229003906;1.0125;0.78125;1.0125;0.709472656;1.0125;44.87804794;1.0125;1.768292665;1.0125;-6.768292904
0.070293103;0;0.070293103;0;1.01925;0.226074219;1.01925;0.781738281;1.01925;0.70703125;1.01925;44.63414764;1.01925;1.951219559;1.01925;-6.646341801
0.070758621;0;0.070758621;0;1.026;0.225585938;1.026;0.78515625;1.026;0.70703125;1.026;43.65853882;1.026;2.256097555;1.026;-6.158536911
0.071224138;0;0.071224138;0;1.03275;0.221679688;1.03275;0.791992188;1.03275;0.697265625;1.03275;42.2560997;1.03275;2.98780489;1.03275;-5.731707573
0.071689655;0;0.071689655;0;1.0395;0.216308594;1.0395;0.79296875;1.0395;0.6875;1.0395;41.5853653;1.0395;3.780487776;1.0395;-5.426829338
0.072155172;0;0.072155172;0;1.04625;0.220214844;1.04625;0.791503906;1.04625;0.670898438;1.04625;41.89024353;1.04625;5.060975552;1.04625;-5.243902683
0.07262069;0;0.07262069;0;1.053;0.221679688;1.053;0.792480469;1.053;0.664550781;1.053;42.37804794;1.053;6.097560883;1.053;-4.756097794
0.073086207;0;0.073086207;0;1.05975;0.219726563;1.05975;0.789550781;1.05975;0.664550781;1.05975;43.29268265;1.05975;6.463414669;1.05975;-4.817073345
0.073551724;0;0.073551724;0;1.0665;0.219238281;1.0665;0.791503906;1.0665;0.658691406;1.0665;42.92683029;1.0665;7.5;1.0665;-4.939024448
0.074017241;0;0.074017241;0;1.07325;0.219238281;1.07325;0.793457031;1.07325;0.645507813;1.07325;41.70731735;1.07325;7.926829338;1.07325;-5.426829338
0.074482759;0;0.074482759;0;1.08;0.229003906;1.08;0.794921875;1.08;0.636230469;1.08;41.95122147;1.08;7.62195158;1.08;-5.243902683
0.074948276;0;0.074948276;0;1.08675;0.2265625;1.08675;0.791503906;1.08675;0.627441406;1.08675;42.07317352;1.08675;7.62195158;1.08675;-4.939024448
0.075413793;0;0.075413793;0;1.0935;0.213867188;1.0935;0.782226563;1.0935;0.615234375;1.0935;41.82926941;1.0935;7.13414669;1.0935;-4.451219559
0.07587931;0;0.07587931;0;1.10025;0.208496094;1.10025;0.779785156;1.10025;0.60546875;1.10025;40.79268265;1.10025;6.768292904;1.10025;-3.841463566
0.076344828;0;0.076344828;0;1.107;0.205078125;1.107;0.770507813;1.107;0.596191406;1.107;39.20731735;1.107;7.01219511;1.107;-4.51219511
0.076810345;0;0.076810345;0;1.11375;0.19921875;1.11375;0.767578125;1.11375;0.59765625;1.11375;38.4146347;1.11375;6.280488014;1.11375;-4.573170662
0.077275862;0;0.077275862;0;1.1205;0.194824219;1.1205;0.773925781;1.1205;0.6015625;1.1205;37.43902588;1.1205;5.853658676;1.1205;-4.390244007
0.077741379;0;0.077741379;0;1.12725;0.19140625;1.12725;0.776855469;1.12725;0.601074219;1.12725;35.48780441;1.12725;6.402439117;1.12725;-4.451219559
0.078206897;0;0.078206897;0;1.134;0.199707031;1.134;0.781738281;1.134;0.600097656;1.134;33.04878235;1.134;7.743902683;1.134;-4.817073345
0.078672414;0;0.078672414;0;1.14075;0.208007813;1.14075;0.788574219;1.14075;0.598632813;1.14075;31.21951294;1.14075;8.902439117;1.14075;-4.939024448
0.079137931;0;0.079137931;0;1.1475;0.21484375;1.1475;0.791992188;1.1475;0.598632813;1.1475;30.6707325;1.1475;8.780488014;1.1475;-4.939024448
0.079603448;0;0.079603448;0;1.15425;0.220214844;1.15425;0.794921875;1.15425;0.587890625;1.15425;30.97561073;1.15425;7.926829338;1.15425;-4.268292904
0.080068966;0;0.080068966;0;1.161;0.211914063;1.161;0.79296875;1.161;0.578125;1.161;30.97561073;1.161;7.926829338;1.161;-3.719512224
0.080534483;0;0.080534483;0;1.16775;0.197265625;1.16775;0.78125;1.16775;0.576660156;1.16775;31.46341515;1.16775;7.5;1.16775;-2.256097555
0.081;0;0.081;0;1.1745;0.195800781;1.1745;0.772460938;1.1745;0.578613281;1.1745;32.2560997;1.1745;6.829268456;1.1745;-1.402438998
0.081465517;0;0.081465517;0;1.18125;0.192382813;1.18125;0.767578125;1.18125;0.562011719;1.18125;33.17073059;1.18125;6.524390221;1.18125;-1.951219559
0.081931034;0;0.081931034;0;1.188;0.190917969;1.188;0.762695313;1.188;0.560546875;1.188;33.47560883;1.188;7.256097794;1.188;-2.560975552
0.082396552;0;0.082396552;0;1.19475;0.197265625;1.19475;0.768554688;1.19475;0.554199219;1.19475;31.95121956;1.19475;7.865853786;1.19475;-2.560975552
0.082862069;0;0.082862069;0;1.2015;0.192871094;1.2015;0.779296875;1.2015;0.557128906;1.2015;29.63414764;1.2015;7.804878235;1.2015;-1.829268336
0.083327586;0;0.083327586;0;1.20825;0.194824219;1.20825;0.7890625;1.20825;0.55859375;1.20825;27.86585426;1.20825;7.195122242;1.20825;-1.585365891
0.083793103;0;0.083793103;0;1.215;0.198242188;1.215;0.801757813;1.215;0.562988281;1.215;26.52439117;1.215;7.317073345;1.215;-1.036585331
0.084258621;0;0.084258621;0;1.22175;0.1953125;1.22175;0.813964844;1.22175;0.548339844;1.22175;24.81707382;1.22175;7.5;1.22175;-0.731707335
0.084724138;0;0.084724138;0;1.2285;0.198242188;1.2285;0.817871094;1.2285;0.543457031;1.2285;23.71951294;1.2285;7.926829338;1.2285;-0.243902445
0.085189655;0;0.085189655;0;1.23525;0.195800781;1.23525;0.815917969;1.23525;0.547363281;1.23525;23.59756088;1.23525;8.475609779;1.23525;-0.365853667
0.085655172;0;0.085655172;0;1.242;0.1875;1.242;0.814941406;1.242;0.547851563;1.242;25.18292809;1.242;9.085366249;1.242;-1.097561002
0.08612069;0;0.08612069;0;1.24875;0.184082031;1.24875;0.8125;1.24875;0.544921875;1.24875;26.52439117;1.24875;8.414634705;1.24875;-1.890243888
0.086586207;0;0.086586207;0;1.2555;0.185058594;1.2555;0.803222656;1.2555;0.54296875;1.2555;25.97561073;1.2555;7.378048897;1.2555;-1.646341443
0.087051724;0;0.087051724;0;1.26225;0.194335938;1.26225;0.801757813;1.26225;0.540039063;1.26225;24.69512177;1.26225;6.646341801;1.26225;-1.402438998
0.087517241;0;0.087517241;0;1.269;0.196777344;1.269;0.802246094;1.269;0.532714844;1.269;22.98780632;1.269;6.646341801;1.269;-1.158536553
0.087982759;0;0.087982759;0;1.27575;0.194335938;1.27575;0.808105469;1.27575;0.523925781;1.27575;21.70731735;1.27575;6.097560883;1.27575;-0.609756112
0.088448276;0;0.088448276;0;1.2825;0.186523438;1.2825;0.812011719;1.2825;0.520019531;1.2825;20.6707325;1.2825;6.158536911;1.2825;-0.365853667
0.088913793;0;0.088913793;0;1.28925;0.180664063;1.28925;0.815429688;1.28925;0.511230469;1.28925;19.0853672;1.28925;5.853658676;1.28925;0.182926834
0.08937931;0;0.08937931;0;1.296;0.1796875;1.296;0.814941406;1.296;0.505371094;1.296;18.4146347;1.296;5.914634228;1.296;0.792682946
0.089844828;0;0.089844828;0;1.30275;0.185058594;1.30275;0.813476563;1.30275;0.512207031;1.30275;18.1707325;1.30275;6.768292904;1.30275;0.914634168
0.090310345;0;0.090310345;0;1.3095;0.185546875;1.3095;0.814941406;1.3095;0.527832031;1.3095;18.10975647;1.3095;6.829268456;1.3095;1.219512224
0.090775862;0;0.090775862;0;1.31625;0.184082031;1.31625;0.812988281;1.31625;0.528320313;1.31625;17.98780441;1.31625;7.317073345;1.31625;1.585365891
0.091241379;0;0.091241379;0;1.323;0.181640625;1.323;0.811523438;1.323;0.522949219;1.323;17.5;1.323;7.378048897;1.323;1.585365891
0.091706897;0;0.091706897;0;1.32975;0.179199219;1.32975;0.814941406;1.32975;0.523925781;1.32975;16.82926941;1.32975;7.5;1.32975;1.280487776
0.092172414;0;0.092172414;0;1.3365;0.186523438;1.3365;0.808105469;1.3365;0.52734375;1.3365;16.70731735;1.3365;8.231707573;1.3365;0.731707335
0.092637931;0;0.092637931;0;1.34325;0.183105469;1.34325;0.797851563;1.34325;0.520019531;1.34325;16.40243912;1.34325;8.536585808;1.34325;0.670731723
0.093103448;0;0.093103448;0;1.35;0.182128906;1.35;0.791503906;1.35;0.517089844;1.35;15.85365868;1.35;8.10975647;1.35;0.914634168
0.093568966;0;0.093568966;0;1.35675;0.177734375;1.35675;0.789550781;1.35675;0.513671875;1.35675;15.6707325;1.35675;7.256097794;1.35675;1.219512224
0.094034483;0;0.094034483;0;1.3635;0.184570313;1.3635;0.800292969;1.3635;0.504394531;1.3635;13.90243912;1.3635;7.5;1.3635;1.280487776
0.0945;-6.22721E-05;0.0945;-0.000143175;1.37025;0.187988281;1.37025;0.808105469;1.37025;0.5;1.37025;11.95121956;1.37025;7.5;1.37025;1.280487776
0.094965517;-4.54871E-05;0.094965517;-8.87923E-05;1.377;0.188476563;1.377;0.809570313;1.377;0.505859375;1.377;11.34146404;1.377;6.463414669;1.377;1.524390221
0.095431034;-3.42412E-05;0.095431034;-4.04517E-05;1.38375;0.188476563;1.38375;0.811035156;1.38375;0.505859375;1.38375;11.46341515;1.38375;5.731707573;1.38375;1.646341443
0.095896552;-3.10521E-05;0.095896552;-2.63523E-05;1.3905;0.187988281;1.3905;0.8125;1.3905;0.496582031;1.3905;11.09756088;1.3905;5.304878235;1.3905;2.134146452
0.096362069;-3.20592E-05;0.096362069;-6.05936E-05;1.39725;0.18359375;1.39725;0.8125;1.39725;0.494140625;1.39725;10.1219511;1.39725;6.097560883;1.39725;2.073170662
0.096827586;-3.23949E-05;0.096827586;-0.000115648;1.404;0.184570313;1.404;0.809082031;1.404;0.495605469;1.404;9.268292427;1.404;6.646341801;1.404;1.768292665
0.097293103;-2.97093E-05;0.097293103;-0.00014049;1.41075;0.182617188;1.41075;0.819824219;1.41075;0.504394531;1.41075;8.841464043;1.41075;5.914634228;1.41075;1.829268336
0.097758621;-2.34989E-05;0.097758621;-0.000128069;1.4175;0.182128906;1.4175;0.831054688;1.4175;0.504394531;1.4175;7.317073345;1.4175;6.341463566;1.4175;2.378048897
0.098224138;-1.561E-05;0.098224138;-0.000104234;1.42425;0.174316406;1.42425;0.836425781;1.42425;0.500976563;1.42425;6.219512463;1.42425;6.829268456;1.42425;2.256097555
0.098689655;-8.56031E-06;0.098689655;-8.03998E-05;1.431;0.170410156;1.431;0.830566406;1.431;0.500488281;1.431;6.463414669;1.431;6.829268456;1.431;1.768292665
0.099155172;-2.18204E-06;0.099155172;-6.4622E-05;1.43775;0.170898438;1.43775;0.831542969;1.43775;0.500976563;1.43775;7.926829338;1.43775;6.585365772;1.43775;1.341463447
0.09962069;4.53193E-06;0.09962069;-5.38796E-05;1.4445;0.17578125;1.4445;0.833007813;1.4445;0.493164063;1.4445;9.146341324;1.4445;7.073170662;1.4445;0.609756112
0.100086207;9.23171E-06;0.100086207;-4.17945E-05;1.45125;0.175292969;1.45125;0.832519531;1.45125;0.495605469;1.45125;9.085366249;1.45125;6.829268456;1.45125;0.304878056
0.100551724;7.55322E-06;0.100551724;-3.30663E-05;1.458;0.182128906;1.458;0.825195313;1.458;0.498046875;1.458;8.902439117;1.458;6.158536911;1.458;0.243902445
0.101017241;4.86763E-06;0.101017241;-2.97093E-05;1.46475;0.193359375;1.46475;0.824707031;1.46475;0.493164063;1.46475;8.10975647;1.46475;5.609755993;1.46475;0.548780501
0.101482759;5.20333E-06;0.101482759;-2.38346E-05;1.4715;0.199707031;1.4715;0.827148438;1.4715;0.489746094;1.4715;6.829268456;1.4715;6.219512463;1.4715;1.341463447
0.101948276;8.89601E-06;0.101948276;-1.19173E-05;1.47825;0.199707031;1.47825;0.825195313;1.47825;0.486328125;1.47825;5.853658676;1.47825;6.219512463;1.47825;1.951219559
0.102413793;1.32601E-05;0.102413793;6.88182E-06;1.485;0.199707031;1.485;0.822265625;1.485;0.493164063;1.485;6.036585331;1.485;4.939024448;1.485;2.317073107
0.10287931;1.29244E-05;0.10287931;2.93736E-05;1.49175;0.198242188;1.49175;0.828125;1.49175;0.498535156;1.49175;6.036585331;1.49175;4.51219511;1.49175;2.560975552
0.103344828;1.04067E-05;0.103344828;4.61585E-05;1.4985;0.195800781;1.4985;0.834960938;1.4985;0.498046875;1.4985;5.609755993;1.4985;4.146341324;1.4985;2.621951342
0.103810345;9.06386E-06;0.103810345;5.69009E-05;1.50525;0.1875;1.50525;0.833496094;1.50525;0.491699219;1.50525;5.48780489;1.50525;4.451219559;1.50525;2.256097555
0.104275862;1.05745E-05;0.104275862;6.81468E-05;1.512;0.182128906;1.512;0.829101563;1.512;0.497070313;1.512;6.097560883;1.512;4.024390221;1.512;2.134146452
0.104741379;1.37636E-05;0.104741379;8.03998E-05;1.51875;0.188476563;1.51875;0.823730469;1.51875;0.496582031;1.51875;6.768292904;1.51875;4.024390221;1.51875;1.707317114
0.105206897;1.46029E-05;0.105206897;9.09743E-05;1.5255;0.192382813;1.5255;0.826171875;1.5255;0.487304688;1.5255;5.609755993;1.5255;6.036585331;1.5255;1.524390221
0.105672414;1.42672E-05;0.105672414;9.65133E-05;1.53225;0.189941406;1.53225;0.82421875;1.53225;0.486328125;1.53225;4.817073345;1.53225;6.890244007;1.53225;1.280487776
0.106137931;1.2253E-05;0.106137931;9.85275E-05;1.539;0.180175781;1.539;0.816894531;1.539;0.489257813;1.539;4.024390221;1.539;7.13414669;1.539;0.975609779
0.106603448;1.10781E-05;0.106603448;0.000101549;1.54575;0.179199219;1.54575;0.815429688;1.54575;0.489746094;1.54575;3.475609779;1.54575;7.01219511;1.54575;0.670731723
0.107068966;1.32601E-05;0.107068966;0.000106584;1.5525;0.180175781;1.5525;0.815917969;1.5525;0.4921875;1.5525;3.048780441;1.5525;8.048780441;1.5525;1.097561002
0.107534483;1.40993E-05;0.107534483;0.000112963;1.55925;0.180175781;1.55925;0.823730469;1.55925;0.486816406;1.55925;1.280487776;1.55925;8.719511986;1.55925;1.341463447
0.108;1.12459E-05;0.108;0.000120684;1.566;0.175292969;1.566;0.827148438;1.566;0.488769531;1.566;-0.304878056;1.566;7.804878235;1.566;1.402438998
0.108465517;7.88891E-06;0.108465517;0.000126055;1.57275;0.179199219;1.57275;0.828125;1.57275;0.493652344;1.57275;-0.731707335;1.57275;6.524390221;1.57275;1.585365891
0.108931034;8.56031E-06;0.108931034;0.000124544;1.5795;0.181152344;1.5795;0.829101563;1.5795;0.504882813;1.5795;-0.670731723;1.5795;5.853658676;1.5795;1.829268336
0.109396552;1.29244E-05;0.109396552;0.000115984;1.58625;0.180664063;1.58625;0.832519531;1.58625;0.505371094;1.58625;-1.768292665;1.58625;5.182927132;1.58625;2.317073107
0.109862069;1.72885E-05;0.109862069;0.000105241;1.593;0.182128906;1.593;0.833007813;1.593;0.501464844;1.593;-3.109756231;1.593;4.146341324;1.593;2.865853786
0.110327586;1.82956E-05;0.110327586;9.31563E-05;1.59975;0.180175781;1.59975;0.836425781;1.59975;0.504882813;1.59975;-4.085365772;1.59975;3.353658676;1.59975;3.292682886
0.110793103;1.561E-05;0.110793103;7.77142E-05;1.6065;0.181640625;1.6065;0.842285156;1.6065;0.513671875;1.6065;-4.756097794;1.6065;3.414634228;1.6065;3.170731783
0.111258621;1.19173E-05;0.111258621;6.39506E-05;1.61325;0.183105469;1.61325;0.847167969;1.61325;0.520019531;1.61325;-6.036585331;1.61325;3.475609779;1.61325;2.865853786
0.111724138;1.12459E-05;0.111724138;5.28725E-05;1.62;0.198730469;1.62;0.850585938;1.62;0.532226563;1.62;-6.829268456;1.62;3.170731783;1.62;2.560975552
0.112189655;1.2253E-05;0.112189655;3.40734E-05;1.62675;0.208007813;1.62675;0.859375;1.62675;0.53125;1.62675;-7.62195158;1.62675;3.780487776;1.62675;2.743902445
0.112655172;1.29244E-05;0.112655172;1.69528E-05;1.6335;0.215332031;1.6335;0.861328125;1.6335;0.530761719;1.6335;-8.597560883;1.6335;4.695122242;1.6335;2.560975552
0.11312069;1.49386E-05;0.11312069;1.2253E-05;1.64025;0.209472656;1.64025;0.858398438;1.64025;0.540527344;1.64025;-8.536585808;1.64025;4.451219559;1.64025;2.195122004
0.113586207;1.86313E-05;0.113586207;5.53903E-06;1.647;0.203613281;1.647;0.858398438;1.647;0.553710938;1.647;-9.146341324;1.647;4.146341324;1.647;2.560975552
0.114051724;2.19883E-05;0.114051724;-1.25887E-05;1.65375;0.201171875;1.65375;0.859375;1.65375;0.555664063;1.65375;-10;1.65375;3.780487776;1.65375;2.621951342
0.114517241;2.40024E-05;0.114517241;-3.0045E-05;1.6605;0.196289063;1.6605;0.860351563;1.6605;0.557617188;1.6605;-10.18292713;1.6605;4.390244007;1.6605;1.890243888
0.114982759;3.13878E-05;0.114982759;-3.92767E-05;1.66725;0.193847656;1.66725;0.858398438;1.66725;0.55859375;1.66725;-10.1219511;1.66725;5.243902683;1.66725;1.341463447
0.115448276;4.48157E-05;0.115448276;-4.61585E-05;1.674;0.192382813;1.674;0.858886719;1.674;0.562011719;1.674;-9.573170662;1.674;5.365853786;1.674;0.548780501
0.115913793;5.53903E-05;0.115913793;-5.4551E-05;1.68075;0.193359375;1.68075;0.867675781;1.68075;0.565917969;1.68075;-9.451219559;1.68075;5.304878235;1.68075;0.304878056
0.11637931;5.6733E-05;0.11637931;-6.86503E-05;1.6875;0.200683594;1.6875;0.870117188;1.6875;0.565429688;1.6875;-9.268292427;1.6875;4.817073345;1.6875;0
0.116844828;5.25368E-05;0.116844828;-8.20783E-05;1.69425;0.214355469;1.69425;0.874511719;1.69425;0.560058594;1.69425;-9.024390221;1.69425;4.390244007;1.69425;0.365853667
0.117310345;4.95155E-05;0.117310345;-8.97993E-05;1.701;0.221191406;1.701;0.877929688;1.701;0.556152344;1.701;-8.10975647;1.701;4.451219559;1.701;0.243902445
0.117775862;4.54871E-05;0.117775862;-9.03029E-05;1.70775;0.217773438;1.70775;0.881347656;1.70775;0.549316406;1.70775;-7.743902683;1.70775;4.329268456;1.70775;0.060975611
0.118241379;3.47448E-05;0.118241379;-7.97284E-05;1.7145;0.21875;1.7145;0.877929688;1.7145;0.551269531;1.7145;-8.10975647;1.7145;4.878048897;1.7145;0.365853667
0.118706897;1.69528E-05;0.118706897;-6.8986E-05;1.72125;0.214355469;1.72125;0.866210938;1.72125;0.557128906;1.72125;-8.292682648;1.72125;4.939024448;1.72125;0.548780501
0.119172414;-1.84634E-06;0.119172414;-6.47898E-05;1.728;0.2109375;1.728;0.861816406;1.728;0.557617188;1.728;-7.743902683;1.728;6.158536911;1.728;0.548780501
0.119637931;-1.46029E-05;0.119637931;-6.73075E-05;1.73475;0.208984375;1.73475;0.867675781;1.73475;0.541503906;1.73475;-9.329268456;1.73475;7.560975552;1.73475;0.304878056
0.120103448;-2.09812E-05;0.120103448;-8.20783E-05;1.7415;0.206542969;1.7415;0.854980469;1.7415;0.53515625;1.7415;-9.878048897;1.7415;8.048780441;1.7415;0.243902445
0.120568966;-2.56809E-05;0.120568966;-0.000110277;1.74825;0.209472656;1.74825;0.841796875;1.74825;0.544921875;1.74825;-9.268292427;1.74825;7.865853786;1.74825;0.060975611
0.121034483;-2.83665E-05;0.121034483;-0.000142504;1.755;0.20703125;1.755;0.83984375;1.755;0.540527344;1.755;-7.256097794;1.755;7.13414669;1.755;0.304878056
0.1215;-2.58488E-05;0.1215;-0.000157275;1.76175;0.201660156;1.76175;0.836425781;1.76175;0.53515625;1.76175;-5.975609779;1.76175;5.914634228;1.76175;0.731707335
0.121965517;-2.04776E-05;0.121965517;-0.00014519;1.7685;0.193847656;1.7685;0.822753906;1.7685;0.531738281;1.7685;-5.48780489;1.7685;5.304878235;1.7685;0.731707335
0.122431034;-1.35958E-05;0.122431034;-0.000125719;1.77525;0.1875;1.77525;0.807617188;1.77525;0.529296875;1.77525;-4.939024448;1.77525;4.695122242;1.77525;1.097561002
0.122896552;-1.05745E-05;0.122896552;-0.000123705;1.782;0.193847656;1.782;0.798339844;1.782;0.538085938;1.782;-4.390244007;1.782;4.939024448;1.782;1.646341443
0.123362069;-1.25887E-05;0.123362069;-0.000136461;1.78875;0.194335938;1.78875;0.797363281;1.78875;0.530761719;1.78875;-5.914634228;1.78875;6.463414669;1.78875;2.195122004
0.123827586;-1.49386E-05;0.123827586;-0.00014049;1.7955;0.190917969;1.7955;0.80078125;1.7955;0.51953125;1.7955;-8.536585808;1.7955;7.13414669;1.7955;2.073170662
0.124293103;-1.57778E-05;0.124293103;-0.000134447;1.80225;0.191894531;1.80225;0.80078125;1.80225;0.510742188;1.80225;-10.73170757;1.80225;7.682927132;1.80225;2.378048897
0.124758621;-1.39315E-05;0.124758621;-0.000120348;1.809;0.192382813;1.809;0.80078125;1.809;0.505859375;1.809;-11.21951199;1.809;8.719511986;1.809;3.048780441
0.125224138;-9.56741E-06;0.125224138;-9.83597E-05;1.81575;0.191894531;1.81575;0.793457031;1.81575;0.499511719;1.81575;-11.03658581;1.81575;8.353658676;1.81575;3.109756231
0.125689655;-5.20333E-06;0.125689655;-7.63714E-05;1.8225;0.194335938;1.8225;0.779296875;1.8225;0.503417969;1.8225;-10.42682934;1.8225;7.926829338;1.8225;3.231707335
0.126155172;-3.02129E-06;0.126155172;-6.26078E-05;1.82925;0.190917969;1.82925;0.771484375;1.82925;0.495605469;1.82925;-9.390244484;1.82925;7.256097794;1.82925;3.292682886
0.12662069;3.35698E-07;0.12662069;-4.98512E-05;1.836;0.187011719;1.836;0.765625;1.836;0.493164063;1.836;-8.780488014;1.836;7.256097794;1.836;3.414634228
0.127086207;5.20333E-06;0.127086207;-3.79339E-05;1.84275;0.177734375;1.84275;0.76171875;1.84275;0.484375;1.84275;-8.902439117;1.84275;7.743902683;1.84275;3.719512224
0.127551724;1.15816E-05;0.127551724;-3.10521E-05;1.8495;0.174804688;1.8495;0.760253906;1.8495;0.487304688;1.8495;-8.902439117;1.8495;7.926829338;1.8495;3.597561121
0.128017241;1.79599E-05;0.128017241;-2.53452E-05;1.85625;0.173828125;1.85625;0.759277344;1.85625;0.483398438;1.85625;-8.841464043;1.85625;8.170731544;1.85625;3.658536673
0.128482759;2.09812E-05;0.128482759;-1.93027E-05;1.863;0.177246094;1.863;0.75390625;1.863;0.475097656;1.863;-8.841464043;1.863;8.475609779;1.863;3.719512224
0.128948276;2.03098E-05;0.128948276;-7.88891E-06;1.86975;0.178710938;1.86975;0.748046875;1.86975;0.474609375;1.86975;-9.63414669;1.86975;8.292682648;1.86975;4.146341324
0.129413793;1.82956E-05;0.129413793;8.22461E-06;1.8765;0.181640625;1.8765;0.748535156;1.8765;0.4765625;1.8765;-10.7926836;1.8765;8.536585808;1.8765;4.817073345
0.12987931;1.93027E-05;0.12987931;2.23239E-05;1.88325;0.178710938;1.88325;0.748046875;1.88325;0.477539063;1.88325;-12.13414669;1.88325;8.963415146;1.88325;5.121951103
0.130344828;2.26596E-05;0.130344828;2.93736E-05;1.89;0.174316406;1.89;0.739257813;1.89;0.482421875;1.89;-12.13414669;1.89;8.10975647;1.89;4.51219511
0.130810345;2.73594E-05;0.130810345;3.81018E-05;1.89675;0.175292969;1.89675;0.728515625;1.89675;0.487304688;1.89675;-11.52439022;1.89675;7.682927132;1.89675;4.268292904
0.131275862;3.20592E-05;0.131275862;5.15297E-05;1.9035;0.168457031;1.9035;0.71875;1.9035;0.486816406;1.9035;-10.48780537;1.9035;6.341463566;1.9035;4.390244007
0.131741379;3.3402E-05;0.131741379;6.73075E-05;1.91025;0.167480469;1.91025;0.712890625;1.91025;0.481933594;1.91025;-10;1.91025;4.51219511;1.91025;4.573170662
0.132206897;3.0045E-05;0.132206897;7.95605E-05;1.917;0.179199219;1.917;0.708984375;1.917;0.483398438;1.917;-10.1219511;1.917;4.329268456;1.917;4.451219559
0.132672414;2.53452E-05;0.132672414;8.5771E-05;1.92375;0.188476563;1.92375;0.711425781;1.92375;0.478515625;1.92375;-10.36585426;1.92375;4.634146214;1.92375;4.329268456
0.133137931;2.31632E-05;0.133137931;9.11421E-05;1.9305;0.182617188;1.9305;0.710449219;1.9305;0.47265625;1.9305;-10;1.9305;4.268292904;1.9305;4.268292904
0.133603448;2.56809E-05;0.133603448;9.71847E-05;1.93725;0.180664063;1.93725;0.7109375;1.93725;0.472167969;1.93725;-9.146341324;1.93725;3.658536673;1.93725;4.451219559
0.134068966;3.03807E-05;0.134068966;0.000105241;1.944;0.176757813;1.944;0.712890625;1.944;0.475097656;1.944;-7.926829338;1.944;3.475609779;1.944;4.573170662
0.134534483;3.32342E-05;0.134534483;0.000113634;1.95075;0.176757813;1.95075;0.71875;1.95075;0.463867188;1.95075;-8.10975647;1.95075;3.841463566;1.95075;4.451219559
0.135;3.70947E-05;0.135;0.000121355;1.9575;0.178710938;1.9575;0.722167969;1.9575;0.458984375;1.9575;-8.414634705;1.9575;3.902439117;1.9575;4.085365772
0.135465517;4.3473E-05;0.135465517;0.00012874;1.96425;0.181640625;1.96425;0.712402344;1.96425;0.464355469;1.96425;-6.829268456;1.96425;4.573170662;1.96425;3.536585331
0.135931034;5.01869E-05;0.135931034;0.000131426;1.971;0.18359375;1.971;0.708984375;1.971;0.477050781;1.971;-5.670732021;1.971;4.634146214;1.971;3.475609779
0.136396552;5.18654E-05;0.136396552;0.000132097;1.97775;0.182617188;1.97775;0.70703125;1.97775;0.482910156;1.97775;-3.048780441;1.97775;4.207317352;1.97775;3.414634228
0.136862069;4.71656E-05;0.136862069;0.000136629;1.9845;0.185546875;1.9845;0.706054688;1.9845;0.482910156;1.9845;-2.134146452;1.9845;4.390244007;1.9845;3.780487776
0.137327586;4.448E-05;0.137327586;0.000149889;1.99125;0.186035156;1.99125;0.711425781;1.99125;0.477050781;1.99125;-2.98780489;1.99125;5.121951103;1.99125;3.841463566
0.137793103;4.31373E-05;0.137793103;0.000151568;1.998;0.179199219;1.998;0.708496094;1.998;0.482421875;1.998;-3.048780441;1.998;4.634146214;1.998;3.597561121
0.138258621;3.87732E-05;0.138258621;0.000133776;2.00475;0.176269531;2.00475;0.701171875;2.00475;0.490234375;2.00475;-0.548780501;2.00475;3.719512224;2.00475;2.98780489
0.138724138;3.20592E-05;0.138724138;0.000119341;2.0115;0.183105469;2.0115;0.694824219;2.0115;0.494628906;2.0115;1.585365891;2.0115;3.902439117;2.0115;2.439024448
0.139189655;2.43381E-05;0.139189655;0.000118669;2.01825;0.18359375;2.01825;0.6953125;2.01825;0.485351563;2.01825;1.707317114;2.01825;4.878048897;2.01825;2.073170662
0.139655172;1.32601E-05;0.139655172;0.000116655;2.025;0.1796875;2.025;0.695800781;2.025;0.484375;2.025;0.914634168;2.025;6.097560883;2.025;1.768292665
0.14012069;1.84634E-06;0.14012069;0.000113634;2.03175;0.186523438;2.03175;0.698242188;2.03175;0.481933594;2.03175;0.548780501;2.03175;6.463414669;2.03175;2.01219511
0.140586207;-2.51774E-06;0.140586207;0.000114641;2.0385;0.189453125;2.0385;0.701171875;2.0385;0.484863281;2.0385;1.341463447;2.0385;5.304878235;2.0385;1.707317114
0.141051724;-3.18914E-06;0.141051724;0.000111955;2.04525;0.191894531;2.04525;0.70703125;2.04525;0.480957031;2.04525;2.195122004;2.04525;4.634146214;2.04525;1.585365891
0.141517241;-6.88182E-06;0.141517241;9.71847E-05;2.052;0.189453125;2.052;0.714355469;2.052;0.474609375;2.052;3.109756231;2.052;5;2.052;1.951219559
0.141982759;-1.49386E-05;0.141982759;7.6875E-05;2.05875;0.187988281;2.05875;0.709960938;2.05875;0.476074219;2.05875;3.597561121;2.05875;5.548780441;2.05875;1.890243888
0.142448276;-2.19883E-05;0.142448276;6.16007E-05;2.0655;0.1875;2.0655;0.705078125;2.0655;0.486816406;2.0655;4.695122242;2.0655;5.609755993;2.0655;1.768292665
0.142913793;-2.46738E-05;0.142913793;5.13619E-05;2.07225;0.19140625;2.07225;0.707519531;2.07225;0.489746094;2.07225;6.341463566;2.07225;5.975609779;2.07225;1.463414669
0.14337931;-2.46738E-05;0.14337931;4.61585E-05;2.079;0.195800781;2.079;0.711914063;2.079;0.489257813;2.079;7.256097794;2.079;5.609755993;2.079;1.341463447
0.143844828;-2.6688E-05;0.143844828;4.28016E-05;2.08575;0.197753906;2.08575;0.715332031;2.08575;0.491210938;2.08575;7.5;2.08575;5.365853786;2.08575;1.402438998
0.144310345;-3.02129E-05;0.144310345;3.40734E-05;2.0925;0.200683594;2.0925;0.723144531;2.0925;0.499511719;2.0925;6.890244007;2.0925;5.975609779;2.0925;1.036585331
0.144775862;-2.93736E-05;0.144775862;1.98062E-05;2.09925;0.203125;2.09925;0.729003906;2.09925;0.495605469;2.09925;6.524390221;2.09925;6.463414669;2.09925;1.036585331
0.145241379;-2.56809E-05;0.145241379;1.04067E-05;2.106;0.197265625;2.106;0.728515625;2.106;0.489257813;2.106;7.804878235;2.106;7.682927132;2.106;0.304878056
0.145706897;-2.3331E-05;0.145706897;1.17494E-05;2.11275;0.191894531;2.11275;0.732421875;2.11275;0.497558594;2.11275;8.780488014;2.11275;8.414634705;2.11275;-0.060975611
0.146172414;-2.06455E-05;0.146172414;2.60166E-05;2.1195;0.188476563;2.1195;0.731445313;2.1195;0.506347656;2.1195;9.329268456;2.1195;8.536585808;2.1195;-0.426829278
0.146637931;-1.49386E-05;0.146637931;3.81018E-05;2.12625;0.187011719;2.12625;0.729003906;2.12625;0.51171875;2.12625;10.30487823;2.12625;8.231707573;2.12625;-0.975609779
0.147103448;-1.09102E-05;0.147103448;3.64233E-05;2.133;0.187011719;2.133;0.728515625;2.133;0.514648438;2.133;10.67073154;2.133;8.170731544;2.133;-1.402438998
0.147568966;-7.55322E-06;0.147568966;2.19883E-05;2.13975;0.192382813;2.13975;0.731445313;2.13975;0.516113281;2.13975;10.60975647;2.13975;7.5;2.13975;-1.280487776
0.148034483;-3.52483E-06;0.148034483;4.86763E-06;2.1465;0.192382813;2.1465;0.736816406;2.1465;0.512207031;2.1465;10.1219511;2.1465;6.463414669;2.1465;-0.853658557
0.1485;-1.17494E-06;0.1485;-4.19623E-06;2.15325;0.192382813;2.15325;0.742675781;2.15325;0.517578125;2.15325;9.390244484;2.15325;5.792683125;2.15325;-0.670731723
0.148965517;-2.18204E-06;0.148965517;-3.52483E-06;2.16;0.196777344;2.16;0.751953125;2.16;0.522460938;2.16;9.390244484;2.16;5.121951103;2.16;-0.670731723
0.149431034;-2.85344E-06;0.149431034;-8.39246E-07;2.16675;0.198730469;2.16675;0.762695313;2.16675;0.518554688;2.16675;8.841464043;2.16675;5.182927132;2.16675;-0.426829278
0.149896552;-4.19623E-06;0.149896552;-8.89601E-06;2.1735;0.201660156;2.1735;0.769042969;2.1735;0.505859375;2.1735;8.048780441;2.1735;5.48780489;2.1735;-0.548780501
0.150362069;-7.38537E-06;0.150362069;-1.82956E-05;2.18025;0.201171875;2.18025;0.772460938;2.18025;0.517089844;2.18025;8.536585808;2.18025;6.585365772;2.18025;-0.670731723
0.150827586;-6.21042E-06;0.150827586;-2.13169E-05;2.187;0.199707031;2.187;0.775390625;2.187;0.523925781;2.187;10.18292713;2.187;7.13414669;2.187;-1.158536553
0.151293103;5.03548E-07;0.151293103;-1.42672E-05;2.19375;0.199707031;2.19375;0.778808594;2.19375;0.521972656;2.19375;10.9146347;2.19375;6.768292904;2.19375;-1.280487776
0.151758621;6.37827E-06;0.151758621;-1.84634E-06;2.2005;0.20703125;2.2005;0.782226563;2.2005;0.520019531;2.2005;10.36585426;2.2005;6.097560883;2.2005;-1.219512224
0.152224138;7.88891E-06;0.152224138;9.06386E-06;2.20725;0.206542969;2.20725;0.784667969;2.20725;0.525878906;2.20725;9.573170662;2.20725;6.402439117;2.20725;-1.280487776
0.152689655;9.9031E-06;0.152689655;1.59457E-05;2.214;0.208007813;2.214;0.785644531;2.214;0.532714844;2.214;9.512195587;2.214;6.585365772;2.214;-1.158536553
0.153155172;1.12459E-05;0.153155172;2.23239E-05;2.22075;0.213378906;2.22075;0.793457031;2.22075;0.540039063;2.22075;9.756097794;2.22075;7.13414669;2.22075;-1.036585331
0.15362069;1.17494E-05;0.15362069;3.79339E-05;2.2275;0.208984375;2.2275;0.801757813;2.2275;0.539550781;2.2275;9.207317352;2.2275;7.865853786;2.2275;-1.341463447
0.154086207;9.9031E-06;0.154086207;5.53903E-05;2.23425;0.20703125;2.23425;0.802246094;2.23425;0.540039063;2.23425;8.353658676;2.23425;7.439024448;2.23425;-1.280487776
0.154551724;9.9031E-06;0.154551724;5.69009E-05;2.241;0.213378906;2.241;0.8046875;2.241;0.544433594;2.241;8.353658676;2.241;7.317073345;2.241;-1.158536553
0.155017241;1.05745E-05;0.155017241;4.17945E-05;2.24775;0.208984375;2.24775;0.803222656;2.24775;0.550292969;2.24775;8.10975647;2.24775;7.5;2.24775;-1.036585331
0.155482759;1.15816E-05;0.155482759;2.13169E-05;2.2545;0.206054688;2.2545;0.807617188;2.2545;0.541503906;2.2545;6.768292904;2.2545;7.256097794;2.2545;-0.731707335
0.155948276;1.29244E-05;0.155948276;9.06386E-06;2.26125;0.206542969;2.26125;0.805664063;2.26125;0.5390625;2.26125;5.792683125;2.26125;7.317073345;2.26125;-0.243902445
0.156413793;1.35958E-05;0.156413793;8.39246E-06;2.268;0.199707031;2.268;0.807617188;2.268;0.54296875;2.268;5.609755993;2.268;7.378048897;2.268;0
0.15687931;1.561E-05;0.15687931;1.39315E-05;2.27475;0.1953125;2.27475;0.805664063;2.27475;0.5390625;2.27475;5.426829338;2.27475;7.98780489;2.27475;0.121951222
0.157344828;1.86313E-05;0.157344828;1.62814E-05;2.2815;0.193847656;2.2815;0.8046875;2.2815;0.538574219;2.2815;5.670732021;2.2815;7.5;2.2815;0.121951222
0.157810345;2.03098E-05;0.157810345;9.23171E-06;2.28825;0.198730469;2.28825;0.802734375;2.28825;0.534667969;2.28825;5.609755993;2.28825;7.073170662;2.28825;0.182926834
0.158275862;1.93027E-05;0.158275862;-1.67849E-07;2.295;0.205078125;2.295;0.812988281;2.295;0.532714844;2.295;4.756097794;2.295;7.743902683;2.295;0.365853667
0.158741379;1.59457E-05;0.158741379;4.19623E-06;2.30175;0.201171875;2.30175;0.813476563;2.30175;0.533203125;2.30175;3.719512224;2.30175;7.378048897;2.30175;0.182926834
0.159206897;1.32601E-05;0.159206897;1.42672E-05;2.3085;0.204101563;2.3085;0.819335938;2.3085;0.534179688;2.3085;2.560975552;2.3085;6.341463566;2.3085;0.548780501
0.159672414;1.59457E-05;0.159672414;1.76242E-05;2.31525;0.208007813;2.31525;0.821289063;2.31525;0.539550781;2.31525;1.097561002;2.31525;6.219512463;2.31525;0.792682946
0.160137931;2.13169E-05;0.160137931;1.32601E-05;2.322;0.204589844;2.322;0.825195313;2.322;0.53515625;2.322;0;2.322;7.01219511;2.322;0.853658557
0.160603448;2.31632E-05;0.160603448;1.46029E-05;2.32875;0.203125;2.32875;0.822753906;2.32875;0.5390625;2.32875;-0.121951222;2.32875;7.378048897;2.32875;0.975609779
0.161068966;2.36667E-05;0.161068966;2.19883E-05;2.3355;0.202636719;2.3355;0.822265625;2.3355;0.5390625;2.3355;-0.365853667;2.3355;7.560975552;2.3355;0.975609779
0.161534483;2.3331E-05;0.161534483;2.6688E-05;2.34225;0.201171875;2.34225;0.822265625;2.34225;0.5390625;2.34225;-0.853658557;2.34225;7.743902683;2.34225;1.036585331
0.162;2.26596E-05;0.162;1.4435E-05;2.349;0.204101563;2.349;0.818847656;2.349;0.536621094;2.349;-1.158536553;2.349;7.743902683;2.349;1.097561002
0.162465517;2.18204E-05;0.162465517;-3.52483E-06;2.35575;0.210449219;2.35575;0.817382813;2.35575;0.536132813;2.35575;-2.195122004;2.35575;7.804878235;2.35575;1.463414669
0.162931034;2.06455E-05;0.162931034;-1.25887E-05;2.3625;0.208984375;2.3625;0.815917969;2.3625;0.532226563;2.3625;-3.414634228;2.3625;7.98780489;2.3625;2.073170662
0.163396552;1.66171E-05;0.163396552;-2.83665E-05;2.36925;0.201660156;2.36925;0.813476563;2.36925;0.536132813;2.36925;-4.207317352;2.36925;7.865853786;2.36925;2.378048897
0.163862069;1.25887E-05;0.163862069;-5.55581E-05;2.376;0.195800781;2.376;0.80859375;2.376;0.5390625;2.376;-4.634146214;2.376;7.865853786;2.376;2.439024448
0.164327586;1.32601E-05;0.164327586;-5.72366E-05;2.38275;0.196289063;2.38275;0.810058594;2.38275;0.53515625;2.38275;-6.036585331;2.38275;8.231707573;2.38275;2.682926893
0.164793103;1.86313E-05;0.164793103;-4.58228E-05;2.3895;0.196777344;2.3895;0.812988281;2.3895;0.537109375;2.3895;-7.256097794;2.3895;8.048780441;2.3895;2.439024448
0.165258621;1.86313E-05;0.165258621;-5.01869E-05;2.39625;0.194335938;2.39625;0.811523438;2.39625;0.533203125;2.39625;-7.560975552;2.39625;7.560975552;2.39625;2.073170662
0.165724138;1.19173E-05;0.165724138;-5.38796E-05;2.403;0.193847656;2.403;0.815429688;2.403;0.534179688;2.403;-7.62195158;2.403;7.195122242;2.403;2.317073107
0.166189655;3.18914E-06;0.166189655;-4.88441E-05;2.40975;0.19921875;2.40975;0.816894531;2.40975;0.531738281;2.40975;-8.10975647;2.40975;7.560975552;2.40975;2.865853786
0.166655172;-8.39246E-07;0.166655172;-7.13359E-05;2.4165;0.194824219;2.4165;0.813964844;2.4165;0.52734375;2.4165;-8.414634705;2.4165;7.682927132;2.4165;2.98780489
0.16712069;-1.67849E-07;0.16712069;-0.000105577;2.42325;0.1953125;2.42325;0.808105469;2.42325;0.53125;2.42325;-8.231707573;2.42325;7.378048897;2.42325;2.865853786
0.167586207;3.69268E-06;0.167586207;-0.000125048;2.43;0.1953125;2.43;0.802734375;2.43;0.53125;2.43;-7.195122242;2.43;6.585365772;2.43;2.98780489
0.168051724;4.36408E-06;0.168051724;-0.000141833;2.43675;0.197265625;2.43675;0.795898438;2.43675;0.5234375;2.43675;-6.707317352;2.43675;6.707317352;2.43675;2.865853786
0.168517241;5.03548E-07;0.168517241;-0.000164157;2.4435;0.202148438;2.4435;0.780761719;2.4435;0.51953125;2.4435;-6.768292904;2.4435;7.62195158;2.4435;2.682926893
0.168982759;-5.03548E-07;0.168982759;-0.000173388;2.45025;0.203125;2.45025;0.774902344;2.45025;0.520019531;2.45025;-7.378048897;2.45025;7.743902683;2.45025;2.378048897
0.169448276;3.18914E-06;0.169448276;-0.000160632;2.457;0.200195313;2.457;0.775878906;2.457;0.518066406;2.457;-7.560975552;2.457;7.317073345;2.457;2.560975552
0.169913793;6.54612E-06;0.169913793;-0.000150896;2.46375;0.19921875;2.46375;0.77734375;2.46375;0.518066406;2.46375;-8.048780441;2.46375;7.804878235;2.46375;2.743902445
0.17037931;8.56031E-06;0.17037931;-0.000154925;2.4705;0.192382813;2.4705;0.774414063;2.4705;0.518554688;2.4705;-8.475609779;2.4705;8.170731544;2.4705;3.048780441
0.170844828;1.05745E-05;0.170844828;-0.000158282;2.47725;0.184570313;2.47725;0.763183594;2.47725;0.517578125;2.47725;-8.414634705;2.47725;8.597560883;2.47725;3.292682886
0.171310345;1.39315E-05;0.171310345;-0.000150225;2.484;0.185546875;2.484;0.75390625;2.484;0.515136719;2.484;-8.536585808;2.484;8.963415146;2.484;2.98780489
0.171775862;1.79599E-05;0.171775862;-0.00013109;2.49075;0.187011719;2.49075;0.747558594;2.49075;0.512695313;2.49075;-8.780488014;2.49075;8.780488014;2.49075;3.048780441
0.172241379;2.3331E-05;0.172241379;-0.000102892;2.4975;0.190917969;2.4975;0.751953125;2.4975;0.512695313;2.4975;-9.512195587;2.4975;8.597560883;2.4975;3.292682886
0.172706897;2.70237E-05;0.172706897;-7.03288E-05;2.50425;0.189453125;2.50425;0.750488281;2.50425;0.51171875;2.50425;-10.67073154;2.50425;8.841464043;2.50425;3.292682886
0.173172414;2.6688E-05;0.173172414;-4.31373E-05;2.511;0.189453125;2.511;0.750488281;2.511;0.514160156;2.511;-11.03658581;2.511;8.353658676;2.511;3.292682886
0.173637931;2.26596E-05;0.173637931;-3.23949E-05;2.51775;0.184570313;2.51775;0.748535156;2.51775;0.51171875;2.51775;-10.42682934;2.51775;8.292682648;2.51775;3.231707335
0.174103448;1.66171E-05;0.174103448;-4.54871E-05;2.5245;0.184082031;2.5245;0.745605469;2.5245;0.5078125;2.5245;-9.451219559;2.5245;7.926829338;2.5245;2.743902445
0.174568966;1.10781E-05;0.174568966;-6.79789E-05;2.53125;0.180664063;2.53125;0.749023438;2.53125;0.502441406;2.53125;-8.719511986;2.53125;7.317073345;2.53125;2.682926893
0.175034483;7.55322E-06;0.175034483;-7.26787E-05;2.538;0.181152344;2.538;0.744140625;2.538;0.5;2.538;-8.048780441;2.538;7.13414669;2.538;2.621951342
0.1755;4.86763E-06;0.1755;-5.7908E-05;2.54475;0.1875;2.54475;0.734375;2.54475;0.499023438;2.54475;-6.890244007;2.54475;7.256097794;2.54475;2.682926893
0.175965517;5.20333E-06;0.175965517;-3.97803E-05;2.5515;0.185546875;2.5515;0.726074219;2.5515;0.4921875;2.5515;-6.036585331;2.5515;6.890244007;2.5515;3.170731783
0.176431034;6.04257E-06;0.176431034;-1.66171E-05;2.55825;0.181152344;2.55825;0.721191406;2.55825;0.491699219;2.55825;-5.975609779;2.55825;6.341463566;2.55825;3.719512224
0.176896552;3.86053E-06;0.176896552;1.79599E-05;2.565;0.18359375;2.565;0.719726563;2.565;0.500488281;2.565;-6.097560883;2.565;6.158536911;2.565;3.841463566
0.177362069;2.51774E-06;0.177362069;5.62295E-05;2.57175;0.177734375;2.57175;0.719726563;2.57175;0.498535156;2.57175;-6.646341801;2.57175;6.097560883;2.57175;3.963414669
0.177827586;6.04257E-06;0.177827586;9.43313E-05;2.5785;0.181152344;2.5785;0.720214844;2.5785;0.498535156;2.5785;-7.317073345;2.5785;5.609755993;2.5785;3.719512224
0.178293103;9.23171E-06;0.178293103;0.00011783;2.58525;0.185058594;2.58525;0.72265625;2.58525;0.503417969;2.58525;-7.073170662;2.58525;5.426829338;2.58525;3.170731783
0.178758621;8.89601E-06;0.178758621;0.000124712;2.592;0.184570313;2.592;0.726074219;2.592;0.5;2.592;-6.402439117;2.592;5.731707573;2.592;2.926829338
0.179224138;8.22461E-06;0.179224138;0.000132097;2.59875;0.190917969;2.59875;0.734375;2.59875;0.496582031;2.59875;-6.219512463;2.59875;7.195122242;2.59875;3.109756231
0.179689655;8.22461E-06;0.179689655;0.000141497;2.6055;0.187988281;2.6055;0.729003906;2.6055;0.493652344;2.6055;-5.853658676;2.6055;8.10975647;2.6055;3.170731783
0.180155172;8.56031E-06;0.180155172;0.000145861;2.61225;0.181152344;2.61225;0.718261719;2.61225;0.498535156;2.61225;-4.146341324;2.61225;7.743902683;2.61225;2.743902445
0.18062069;7.88891E-06;0.18062069;0.000148714;2.619;0.178710938;2.619;0.714355469;2.619;0.500976563;2.619;-1.890243888;2.619;7.560975552;2.619;3.170731783
0.181086207;3.86053E-06;0.181086207;0.000150225;2.62575;0.174316406;2.62575;0.713867188;2.62575;0.499511719;2.62575;-1.097561002;2.62575;6.951219559;2.62575;3.536585331
0.181551724;-1.51064E-06;0.181551724;0.000151904;2.6325;0.179199219;2.6325;0.711425781;2.6325;0.502929688;2.6325;-0.670731723;2.6325;7.073170662;2.6325;3.414634228
0.182017241;-3.18914E-06;0.182017241;0.000164324;2.63925;0.181640625;2.63925;0.708007813;2.63925;0.505371094;2.63925;-0.365853667;2.63925;7.073170662;2.63925;3.048780441
0.182482759;-5.03548E-07;0.182482759;0.000186481;2.646;0.184570313;2.646;0.713378906;2.646;0.508789063;2.646;0.060975611;2.646;6.890244007;2.646;2.317073107
0.182948276;3.69268E-06;0.182948276;0.000207965;2.65275;0.186523438;2.65275;0.715332031;2.65275;0.508300781;2.65275;1.036585331;2.65275;6.646341801;2.65275;2.01219511
0.183413793;6.37827E-06;0.183413793;0.000230625;2.6595;0.186035156;2.6595;0.719726563;2.6595;0.509277344;2.6595;0.914634168;2.6595;6.707317352;2.6595;1.829268336
0.18387931;9.23171E-06;0.18387931;0.000250095;2.66625;0.190917969;2.66625;0.724609375;2.66625;0.500976563;2.66625;0.304878056;2.66625;7.439024448;2.66625;1.829268336
0.184344828;1.10781E-05;0.184344828;0.000254963;2.673;0.194335938;2.673;0.719726563;2.673;0.499023438;2.673;0.182926834;2.673;7.926829338;2.673;1.768292665
0.184810345;1.25887E-05;0.184810345;0.000254124;2.67975;0.196777344;2.67975;0.715820313;2.67975;0.500976563;2.67975;0.853658557;2.67975;8.048780441;2.67975;1.524390221
0.185275862;1.32601E-05;0.185275862;0.00026067;2.6865;0.199707031;2.6865;0.716308594;2.6865;0.501953125;2.6865;1.890243888;2.6865;8.048780441;2.6865;0.975609779
0.185741379;1.51064E-05;0.185741379;0.000279133;2.69325;0.186035156;2.69325;0.718261719;2.69325;0.5;2.69325;2.560975552;2.69325;7.98780489;2.69325;0.853658557
0.186206897;1.59457E-05;0.186206897;0.000292561;2.7;0.181640625;2.7;0.715332031;2.7;0.502929688;2.7;3.353658676;2.7;7.804878235;2.7;0.670731723
0.186672414;1.66171E-05;0.186672414;0.000298939;2.70675;0.182617188;2.70675;0.722167969;2.70675;0.50390625;2.70675;4.51219511;2.70675;7.073170662;2.70675;0.609756112
0.187137931;1.62814E-05;0.187137931;0.000314885;2.7135;0.186035156;2.7135;0.729492188;2.7135;0.507324219;2.7135;4.756097794;2.7135;7.13414669;2.7135;0.609756112
0.187603448;1.39315E-05;0.187603448;0.000340902;2.72025;0.189453125;2.72025;0.736816406;2.72025;0.506835938;2.72025;4.390244007;2.72025;7.743902683;2.72025;0.670731723
0.188068966;1.19173E-05;0.188068966;0.000366751;2.727;0.190429688;2.727;0.735839844;2.727;0.508300781;2.727;4.085365772;2.727;7.5;2.727;0.609756112
0.188534483;1.19173E-05;0.188534483;0.000379171;2.73375;0.19140625;2.73375;0.73828125;2.73375;0.512207031;2.73375;4.329268456;2.73375;7.317073345;2.73375;0.731707335
0.189;9.23171E-06;0.189;0.000369772;2.7405;0.191894531;2.7405;0.7421875;2.7405;0.512695313;2.7405;4.634146214;2.7405;7.195122242;2.7405;0.670731723
0.189465517;6.37827E-06;0.189465517;0.000357015;2.74725;0.194335938;2.74725;0.747070313;2.74725;0.511230469;2.74725;4.451219559;2.74725;7.682927132;2.74725;0.670731723
0.189931034;6.88182E-06;0.189931034;0.00034023;2.754;0.19140625;2.754;0.75;2.754;0.513671875;2.754;4.451219559;2.754;7.256097794;2.754;0.609756112
0.190396552;5.87472E-06;0.190396552;0.000310689;2.76075;0.192382813;2.76075;0.74609375;2.76075;0.518066406;2.76075;5.182927132;2.76075;7.743902683;2.76075;0.853658557
0.190862069;-1.67849E-07;0.190862069;0.00028719;2.7675;0.185058594;2.7675;0.742675781;2.7675;0.516601563;2.7675;5.731707573;2.7675;7.865853786;2.7675;0.548780501
0.191327586;-6.21042E-06;0.191327586;0.000282826;2.77425;0.18359375;2.77425;0.739746094;2.77425;0.515136719;2.77425;5.792683125;2.77425;7.5;2.77425;0.548780501
0.191793103;-9.9031E-06;0.191793103;0.00029424;2.781;0.185058594;2.781;0.741699219;2.781;0.520507813;2.781;5.609755993;2.781;6.829268456;2.781;0.914634168
0.192258621;-1.07424E-05;0.192258621;0.000306493;2.78775;0.193359375;2.78775;0.74609375;2.78775;0.526855469;2.78775;5.670732021;2.78775;6.402439117;2.78775;0.975609779
0.192724138;-5.53903E-06;0.192724138;0.000332509;2.7945;0.198242188;2.7945;0.752441406;2.7945;0.526367188;2.7945;5.304878235;2.7945;6.646341801;2.7945;1.036585331
0.193189655;5.70687E-06;0.193189655;0.000376486;2.80125;0.194824219;2.80125;0.755371094;2.80125;0.526855469;2.80125;4.878048897;2.80125;6.951219559;2.80125;0.792682946
0.193655172;1.42672E-05;0.193655172;0.000390417;2.808;0.196777344;2.808;0.754882813;2.808;0.529785156;2.808;5.121951103;2.808;6.890244007;2.808;0.609756112
0.19412069;1.35958E-05;0.19412069;0.000359365;2.81475;0.19921875;2.81475;0.758300781;2.81475;0.530273438;2.81475;5.670732021;2.81475;6.768292904;2.81475;0.426829278
0.194586207;3.18914E-06;0.194586207;0.000321431;2.8215;0.196777344;2.8215;0.765136719;2.8215;0.532226563;2.8215;5.914634228;2.8215;6.707317352;2.8215;0.609756112
0.195051724;-8.22461E-06;0.195051724;0.000292561;2.82825;0.196289063;2.82825;0.765136719;2.82825;0.532714844;2.82825;5.121951103;2.82825;6.951219559;2.82825;0.731707335
0.195517241;-9.9031E-06;0.195517241;0.000260334;2.835;0.187988281;2.835;0.763671875;2.835;0.534179688;2.835;5.243902683;2.835;7.5;2.835;0.365853667
0.195982759;-1.0071E-06;0.195982759;0.000216022;2.84175;0.190429688;2.84175;0.76953125;2.84175;0.536621094;2.84175;5.609755993;2.84175;8.048780441;2.84175;0.182926834
0.196448276;1.15816E-05;0.196448276;0.000178424;2.8485;0.189453125;2.8485;0.774414063;2.8485;0.530761719;2.8485;5.365853786;2.8485;8.353658676;2.8485;0.121951222
0.196913793;2.3331E-05;0.196913793;0.000164996;2.85525;0.19140625;2.85525;0.774414063;2.85525;0.534179688;2.85525;4.451219559;2.85525;8.658536911;2.85525;0.243902445
0.19737931;3.40734E-05;0.19737931;0.000168017;2.862;0.192871094;2.862;0.775390625;2.862;0.538574219;2.862;4.329268456;2.862;8.719511986;2.862;0.243902445
0.197844828;3.97803E-05;0.197844828;0.000163653;2.86875;0.195800781;2.86875;0.775390625;2.86875;0.5390625;2.86875;4.451219559;2.86875;7.743902683;2.86875;0.48780489
0.198310345;3.84375E-05;0.198310345;0.000179095;2.8755;0.196777344;2.8755;0.776367188;2.8755;0.537597656;2.8755;4.695122242;2.8755;7.5;2.8755;1.036585331
0.198775862;2.87022E-05;0.198775862;0.000234653;2.88225;0.19921875;2.88225;0.780273438;2.88225;0.535644531;2.88225;3.963414669;2.88225;7.317073345;2.88225;1.280487776
0.199241379;1.42672E-05;0.199241379;0.000305989;2.889;0.201660156;2.889;0.783203125;2.889;0.540527344;2.889;3.353658676;2.889;7.317073345;2.889;1.524390221
0.199706897;-1.84634E-06;0.199706897;0.000364401;2.89575;0.202148438;2.89575;0.788085938;2.89575;0.537109375;2.89575;2.682926893;2.89575;8.475609779;2.89575;1.097561002
0.200172414;-1.79599E-05;0.200172414;0.000403342;2.9025;0.198730469;2.9025;0.790039063;2.9025;0.533691406;2.9025;1.646341443;2.9025;9.024390221;2.9025;0.792682946
0.200637931;-2.83665E-05;0.200637931;0.000451682;2.90925;0.194335938;2.90925;0.790527344;2.90925;0.532226563;2.90925;0.975609779;2.90925;9.085366249;2.90925;0.670731723
0.201103448;-3.25628E-05;0.201103448;0.000521508;2.916;0.19140625;2.916;0.790039063;2.916;0.534179688;2.916;1.280487776;2.916;8.841464043;2.916;0.792682946
0.201568966;-3.40734E-05;0.201568966;0.000582605;2.92275;0.192871094;2.92275;0.789550781;2.92275;0.536132813;2.92275;1.097561002;2.92275;7.865853786;2.92275;1.036585331
0.202034483;-4.11231E-05;0.202034483;0.000627253;2.9295;0.196289063;2.9295;0.791015625;2.9295;0.533203125;2.9295;0.853658557;2.9295;7.378048897;2.9295;0.975609779
0.2025;-5.28725E-05;0.2025;0.000707317;2.93625;0.194335938;2.93625;0.791503906;2.93625;0.53125;2.93625;0.792682946;2.93625;7.256097794;2.93625;0.914634168
0.202965517;-5.7908E-05;0.202965517;0.000799802;2.943;0.194824219;2.943;0.79296875;2.943;0.538085938;2.943;0.48780489;2.943;6.890244007;2.943;0.914634168
0.203431034;-4.71656E-05;0.203431034;0.000881041;2.94975;0.194335938;2.94975;0.792480469;2.94975;0.538085938;2.94975;0.121951222;2.94975;6.707317352;2.94975;1.036585331
0.203896552;-2.83665E-05;0.203896552;0.000931731;2.9565;0.195800781;2.9565;0.789550781;2.9565;0.540527344;2.9565;-0.304878056;2.9565;6.707317352;2.9565;1.036585331
0.204362069;-1.32601E-05;0.204362069;0.000958587;2.96325;0.196777344;2.96325;0.795410156;2.96325;0.540527344;2.96325;-1.036585331;2.96325;7.01219511;2.96325;1.219512224
0.204827586;-3.18914E-06;0.204827586;0.000977386;2.97;0.200195313;2.97;0.799316406;2.97;0.541992188;2.97;-1.768292665;2.97;7.743902683;2.97;1.341463447
0.205293103;4.53193E-06;0.205293103;0.001016327;2.97675;0.196777344;2.97675;0.793945313;2.97675;0.541503906;2.97675;-2.682926893;2.97675;8.719511986;2.97675;1.402438998
0.205758621;1.10781E-05;0.205758621;0.001066011;2.9835;0.194335938;2.9835;0.790527344;2.9835;0.540039063;2.9835;-3.353658676;2.9835;9.268292427;2.9835;1.219512224
0.206224138;1.52743E-05;0.206224138;0.001094881;2.99025;0.192871094;2.99025;0.783691406;2.99025;0.54296875;2.99025;-3.780487776;2.99025;9.146341324;2.99025;0.975609779
0.206689655;1.76242E-05;0.206689655;0.001095552;2.997;0.196777344;2.997;0.782226563;2.997;0.539550781;2.997;-3.902439117;2.997;8.780488014;2.997;0.975609779
0.207155172;1.86313E-05;0.207155172;0.001072053;3.00375;0.191894531;3.00375;0.785644531;3.00375;0.539550781;3.00375;-4.207317352;3.00375;8.475609779;3.00375;1.219512224
0.20762069;1.93027E-05;0.20762069;0.001040162;3.0105;0.189453125;3.0105;0.787109375;3.0105;0.538085938;3.0105;-4.390244007;3.0105;8.414634705;3.0105;1.524390221
0.208086207;2.18204E-05;0.208086207;0.001033783;3.01725;0.187988281;3.01725;0.784667969;3.01725;0.544433594;3.01725;-4.390244007;3.01725;8.353658676;3.01725;1.646341443
0.208551724;2.97093E-05;0.208551724;0.001186023;3.024;0.185546875;3.024;0.784667969;3.024;0.543945313;3.024;-4.146341324;3.024;8.048780441;3.024;1.524390221
0.209017241;4.48157E-05;0.209017241;0.001611688;3.03075;0.182617188;3.03075;0.782226563;3.03075;0.541015625;3.03075;-4.390244007;3.03075;7.378048897;3.03075;1.463414669
0.209482759;6.36149E-05;0.209482759;0.002285267;3.0375;0.186523438;3.0375;0.781738281;3.0375;0.537597656;3.0375;-4.939024448;3.0375;6.951219559;3.0375;1.768292665
0.209948276;7.63714E-05;0.209948276;0.002957671;3.04425;0.194335938;3.04425;0.784179688;3.04425;0.538085938;3.04425;-5.914634228;3.04425;7.195122242;3.04425;2.01219511
0.210413793;7.93927E-05;0.210413793;0.003423957;3.051;0.192871094;3.051;0.787597656;3.051;0.534179688;3.051;-6.768292904;3.051;7.256097794;3.051;2.01219511
0.21087931;7.60357E-05;0.21087931;0.003601206;3.05775;0.193359375;3.05775;0.781738281;3.05775;0.53125;3.05775;-6.341463566;3.05775;6.829268456;3.05775;1.768292665
0.211344828;6.93217E-05;0.211344828;0.003375616;3.0645;0.192871094;3.0645;0.780273438;3.0645;0.53125;3.0645;-5.731707573;3.0645;7.926829338;3.0645;1.829268336
0.211810345;6.29435E-05;0.211810345;0.002837156;3.07125;0.189453125;3.07125;0.772949219;3.07125;0.525390625;3.07125;-5.304878235;3.07125;7.926829338;3.07125;1.646341443
0.212275862;5.95865E-05;0.212275862;0.002253712;3.078;0.185546875;3.078;0.767578125;3.078;0.523925781;3.078;-5.365853786;3.078;7.378048897;3.078;2.073170662
0.212741379;5.82437E-05;0.212741379;0.001826032;3.08475;0.185546875;3.08475;0.763671875;3.08475;0.527832031;3.08475;-5.670732021;3.08475;7.5;3.08475;2.256097555
0.213206897;5.85794E-05;0.213206897;0.001372167;3.0915;0.184082031;3.0915;0.76171875;3.0915;0.53125;3.0915;-6.341463566;3.0915;7.560975552;3.0915;2.5
0.213672414;5.95865E-05;0.213672414;0.000583948;3.09825;0.185058594;3.09825;0.764648438;3.09825;0.530273438;3.09825;-6.646341801;3.09825;7.13414669;3.09825;2.439024448
0.214137931;6.19364E-05;0.214137931;-0.000359197;3.105;0.189941406;3.105;0.764648438;3.105;0.534179688;3.105;-6.890244007;3.105;6.829268456;3.105;2.682926893
0.214603448;6.09293E-05;0.214603448;-0.001119722;3.11175;0.193847656;3.11175;0.767089844;3.11175;0.533203125;3.11175;-6.585365772;3.11175;6.829268456;3.11175;2.804877996
0.215068966;5.25368E-05;0.215068966;-0.001631998;3.1185;0.189453125;3.1185;0.762207031;3.1185;0.526855469;3.1185;-6.280488014;3.1185;6.646341801;3.1185;2.865853786
0.215534483;3.74304E-05;0.215534483;-0.002011002;3.12525;0.186035156;3.12525;0.762695313;3.12525;0.522949219;3.12525;-7.01219511;3.12525;7.195122242;3.12525;3.170731783
0.216;2.3331E-05;0.216;-0.002329244;3.132;0.183105469;3.132;0.757324219;3.132;0.521972656;3.132;-7.439024448;3.132;7.317073345;3.132;3.353658676
0.216465517;9.9031E-06;0.216465517;-0.00259176;3.13875;0.178222656;3.13875;0.743652344;3.13875;0.515625;3.13875;-6.768292904;3.13875;6.707317352;3.13875;3.475609779
0.216931034;-1.51064E-06;0.216931034;-0.002766659;3.1455;0.176269531;3.1455;0.73828125;3.1455;0.51171875;3.1455;-5.731707573;3.1455;5.731707573;3.1455;3.902439117
0.217396552;-9.23171E-06;0.217396552;-0.002908324;3.15225;0.180664063;3.15225;0.743164063;3.15225;0.510742188;3.15225;-5.304878235;3.15225;5.853658676;3.15225;4.207317352
0.217862069;-1.96384E-05;0.217862069;-0.003086244;3.159;0.183105469;3.159;0.7421875;3.159;0.518066406;3.159;-5.365853786;3.159;5.853658676;3.159;4.329268456
0.218327586;-3.30663E-05;0.218327586;-0.00326685;3.16575;0.187011719;3.16575;0.736816406;3.16575;0.522949219;3.16575;-5.304878235;3.16575;5.48780489;3.16575;4.390244007
0.218793103;-4.48157E-05;0.218793103;-0.003376455;3.1725;0.183105469;3.1725;0.737304688;3.1725;0.523925781;3.1725;-4.939024448;3.1725;5.243902683;3.1725;3.841463566
0.219258621;-4.58228E-05;0.219258621;-0.003391562;3.17925;0.1875;3.17925;0.733886719;3.17925;0.523925781;3.17925;-4.451219559;3.17925;5.365853786;3.17925;3.658536673
0.219724138;-3.70947E-05;0.219724138;-0.00335581;3.186;0.185546875;3.186;0.734863281;3.186;0.520507813;3.186;-4.573170662;3.186;5.182927132;3.186;3.475609779
0.220189655;-2.46738E-05;0.220189655;-0.003317037;3.19275;0.186523438;3.19275;0.737304688;3.19275;0.521484375;3.19275;-4.634146214;3.19275;5.548780441;3.19275;3.292682886
0.220655172;-1.76242E-05;0.220655172;-0.003291691;3.1995;0.186035156;3.1995;0.732910156;3.1995;0.519042969;3.1995;-5.121951103;3.1995;6.646341801;3.1995;2.743902445
0.22112069;-1.62814E-05;0.22112069;-0.003251408;3.20625;0.184570313;3.20625;0.725097656;3.20625;0.516113281;3.20625;-5.121951103;3.20625;6.707317352;3.20625;2.439024448
0.221586207;-1.93027E-05;0.221586207;-0.003188464;3.213;0.187011719;3.213;0.717285156;3.213;0.511230469;3.213;-4.756097794;3.213;7.195122242;3.213;2.317073107
0.222051724;-2.3331E-05;0.222051724;-0.003085908;3.21975;0.190429688;3.21975;0.71484375;3.21975;0.507324219;3.21975;-3.841463566;3.21975;7.073170662;3.21975;1.951219559
0.222517241;-2.3331E-05;0.222517241;-0.002991913;3.2265;0.19140625;3.2265;0.71484375;3.2265;0.511230469;3.2265;-2.804877996;3.2265;6.646341801;3.2265;2.073170662
0.222982759;-2.06455E-05;0.222982759;-0.002920241;3.23325;0.189941406;3.23325;0.71484375;3.23325;0.513671875;3.23325;-2.073170662;3.23325;6.463414669;3.23325;1.951219559
0.223448276;-1.76242E-05;0.223448276;-0.002838331;3.24;0.1875;3.24;0.717773438;3.24;0.510253906;3.24;-1.158536553;3.24;6.219512463;3.24;2.256097555
0.223913793;-1.2253E-05;0.223913793;-0.002728893;3.24675;0.1875;3.24675;0.719726563;3.24675;0.511230469;3.24675;-0.121951222;3.24675;6.219512463;3.24675;2.195122004
0.22437931;-4.86763E-06;0.22437931;-0.002609049;3.2535;0.188476563;3.2535;0.720214844;3.2535;0.510742188;3.2535;0.670731723;3.2535;5.914634228;3.2535;1.951219559
0.224844828;-1.17494E-06;0.224844828;-0.002500786;3.26025;0.192382813;3.26025;0.721679688;3.26025;0.507324219;3.26025;1.219512224;3.26025;6.219512463;3.26025;1.951219559
0.225310345;-8.39246E-07;0.225310345;-0.002388998;3.267;0.189941406;3.267;0.722167969;3.267;0.507324219;3.267;1.158536553;3.267;7.01219511;3.267;1.707317114
0.225775862;5.03548E-07;0.225775862;-0.002275028;3.27375;0.186523438;3.27375;0.72265625;3.27375;0.502441406;3.27375;0.609756112;3.27375;7.62195158;3.27375;1.951219559
0.226241379;5.20333E-06;0.226241379;-0.002126482;3.2805;0.180175781;3.2805;0.724121094;3.2805;0.496582031;3.2805;0.121951222;3.2805;7.98780489;3.2805;2.134146452
0.226706897;8.22461E-06;0.226706897;-0.001941176;3.28725;0.174316406;3.28725;0.727050781;3.28725;0.5;3.28725;-0.060975611;3.28725;7.926829338;3.28725;1.829268336
0.227172414;7.72107E-06;0.227172414;-0.001748485;3.294;0.172851563;3.294;0.72265625;3.294;0.502441406;3.294;0.426829278;3.294;7.98780489;3.294;1.524390221
0.227637931;5.20333E-06;0.227637931;-0.001561166;3.30075;0.180175781;3.30075;0.724121094;3.30075;0.50390625;3.30075;1.402438998;3.30075;7.926829338;3.30075;1.402438998
0.228103448;4.36408E-06;0.228103448;-0.001429572;3.3075;0.179199219;3.3075;0.721679688;3.3075;0.506347656;3.3075;1.768292665;3.3075;7.804878235;3.3075;1.219512224
0.228568966;6.54612E-06;0.228568966;-0.00132282;3.31425;0.178710938;3.31425;0.718261719;3.31425;0.508300781;3.31425;2.804877996;3.31425;6.890244007;3.31425;1.097561002
0.229034483;9.06386E-06;0.229034483;-0.001206668;3.321;0.182617188;3.321;0.719726563;3.321;0.508300781;3.321;3.658536673;3.321;6.463414669;3.321;1.219512224
0.2295;8.22461E-06;0.2295;-0.001086656;3.32775;0.1875;3.32775;0.723632813;3.32775;0.511230469;3.32775;4.268292904;3.32775;6.280488014;3.32775;1.036585331
0.229965517;6.37827E-06;0.229965517;-0.000966644;3.3345;0.187988281;3.3345;0.719238281;3.3345;0.513183594;3.3345;4.268292904;3.3345;6.280488014;3.3345;1.097561002
0.230431034;4.19623E-06;0.230431034;-0.000840253;3.34125;0.186035156;3.34125;0.721191406;3.34125;0.515136719;3.34125;3.719512224;3.34125;6.524390221;3.34125;0.731707335
0.230896552;4.86763E-06;0.230896552;-0.000713359;3.348;0.186523438;3.348;0.717285156;3.348;0.521484375;3.348;3.414634228;3.348;7.195122242;3.348;0.304878056
0.231362069;5.20333E-06;0.231362069;-0.000585626;3.35475;0.187988281;3.35475;0.715820313;3.35475;0.51953125;3.35475;4.390244007;3.35475;6.646341801;3.35475;0.121951222
0.231827586;5.20333E-06;0.231827586;-0.000470817;3.3615;0.193847656;3.3615;0.724121094;3.3615;0.51953125;3.3615;5.121951103;3.3615;6.341463566;3.3615;0.365853667
0.232293103;8.22461E-06;0.232293103;-0.00040116;3.36825;0.197753906;3.36825;0.73046875;3.36825;0.520019531;3.36825;5.731707573;3.36825;6.402439117;3.36825;0.48780489
0.232758621;1.19173E-05;0.232758621;-0.0003879;3.375;0.193359375;3.375;0.728515625;3.375;0.5234375;3.375;6.402439117;3.375;6.280488014;3.375;0.48780489
0.233224138;1.19173E-05;0.233224138;-0.000422477;3.38175;0.190429688;3.38175;0.725585938;3.38175;0.524902344;3.38175;6.890244007;3.38175;6.158536911;3.38175;0.609756112
0.233689655;1.19173E-05;0.233689655;-0.000479545;3.3885;0.186035156;3.3885;0.727539063;3.3885;0.526855469;3.3885;8.048780441;3.3885;5.975609779;3.3885;0.243902445
0.234155172;1.15816E-05;0.234155172;-0.000543999;3.39525;0.184570313;3.39525;0.729003906;3.39525;0.526367188;3.39525;8.597560883;3.39525;5.853658676;3.39525;0.182926834
0.23462069;9.9031E-06;0.23462069;-0.000613489;3.402;0.185546875;3.402;0.73046875;3.402;0.527832031;3.402;8.170731544;3.402;6.646341801;3.402;0.243902445
0.235086207;7.88891E-06;0.235086207;-0.000656458;3.40875;0.192382813;3.40875;0.732910156;3.40875;0.528320313;3.40875;7.256097794;3.40875;7.01219511;3.40875;0.060975611
0.235551724;6.88182E-06;0.235551724;-0.000651423;3.4155;0.189941406;3.4155;0.737304688;3.4155;0.530273438;3.4155;6.524390221;3.4155;7.195122242;3.4155;0
0.236017241;7.88891E-06;0.236017241;-0.000617182;3.42225;0.198730469;3.42225;0.744628906;3.42225;0.52734375;3.42225;6.158536911;3.42225;7.5;3.42225;-0.182926834
0.236482759;1.19173E-05;0.236482759;-0.00058294;3.429;0.193847656;3.429;0.747558594;3.429;0.517578125;3.429;5.670732021;3.429;8.231707573;3.429;-0.48780489
0.236948276;1.49386E-05;0.236948276;-0.000530907;3.43575;0.190917969;3.43575;0.747558594;3.43575;0.520507813;3.43575;6.402439117;3.43575;7.926829338;3.43575;-0.426829278
0.237413793;1.71206E-05;0.237413793;-0.000452857;3.4425;0.193847656;3.4425;0.749511719;3.4425;0.518554688;3.4425;7.439024448;3.4425;8.292682648;3.4425;-0.304878056
0.23787931;1.8967E-05;0.23787931;-0.000338552;3.44925;0.187011719;3.44925;0.75390625;3.44925;0.520996094;3.44925;7.682927132;3.44925;8.231707573;3.44925;-0.243902445
0.238344828;1.86313E-05;0.238344828;-0.000233814;3.456;0.190917969;3.456;0.754394531;3.456;0.522949219;3.456;7.317073345;3.456;7.743902683;3.456;-0.060975611
0.238810345;1.91348E-05;0.238810345;-0.000156268;3.46275;0.190917969;3.46275;0.755859375;3.46275;0.525878906;3.46275;7.01219511;3.46275;7.5;3.46275;0.182926834
0.239275862;1.93027E-05;0.239275862;-0.000105577;3.4695;0.194824219;3.4695;0.758300781;3.4695;0.529785156;3.4695;7.13414669;3.4695;7.5;3.4695;0.304878056
0.239741379;1.59457E-05;0.239741379;-8.27497E-05;3.47625;0.19140625;3.47625;0.767089844;3.47625;0.532226563;3.47625;6.951219559;3.47625;8.292682648;3.47625;0
0.240206897;1.05745E-05;0.240206897;-9.28206E-05;3.483;0.189941406;3.483;0.768554688;3.483;0.532714844;3.483;6.158536911;3.483;8.902439117;3.483;0.060975611
0.240672414;7.88891E-06;0.240672414;-0.000143175;3.48975;0.191894531;3.48975;0.767089844;3.48975;0.539550781;3.48975;5.914634228;3.48975;8.780488014;3.48975;-0.060975611
0.241137931;8.56031E-06;0.241137931;-0.000233143;3.4965;0.189941406;3.4965;0.758789063;3.4965;0.543457031;3.4965;6.524390221;3.4965;8.231707573;3.4965;0.243902445
0.241603448;9.73526E-06;0.241603448;-0.000345937;3.50325;0.189453125;3.50325;0.756835938;3.50325;0.544433594;3.50325;6.707317352;3.50325;7.317073345;3.50325;0.365853667
0.242068966;1.12459E-05;0.242068966;-0.000433219;3.51;0.190429688;3.51;0.76171875;3.51;0.540039063;3.51;6.036585331;3.51;6.890244007;3.51;0.670731723
0.242534483;1.12459E-05;0.242534483;-0.000490623;3.51675;0.187988281;3.51675;0.766601563;3.51675;0.542480469;3.51675;5.548780441;3.51675;6.768292904;3.51675;0.48780489
0.243;1.12459E-05;0.243;-0.00055407;3.5235;0.19140625;3.5235;0.765136719;3.5235;0.549316406;3.5235;5.792683125;3.5235;6.524390221;3.5235;0.426829278
0.243465517;1.39315E-05;0.243465517;-0.000589319;3.53025;0.195800781;3.53025;0.764648438;3.53025;0.549316406;3.53025;6.341463566;3.53025;6.524390221;3.53025;0.426829278
0.243931034;1.82956E-05;0.243931034;-0.000563638;3.537;0.197265625;3.537;0.766601563;3.537;0.548339844;3.537;6.585365772;3.537;6.219512463;3.537;0.304878056
0.244396552;2.09812E-05;0.244396552;-0.000474845;3.54375;0.201171875;3.54375;0.770019531;3.54375;0.549316406;3.54375;5.853658676;3.54375;5.975609779;3.54375;0.182926834
0.244862069;2.13169E-05;0.244862069;-0.000364065;3.5505;0.199707031;3.5505;0.775878906;3.5505;0.546875;3.5505;5.060975552;3.5505;6.341463566;3.5505;0.426829278
0.245327586;2.16526E-05;0.245327586;-0.000283497;3.55725;0.198730469;3.55725;0.778808594;3.55725;0.549316406;3.55725;5.060975552;3.55725;5.792683125;3.55725;0.670731723
0.245793103;2.09812E-05;0.245793103;-0.000240528;3.564;0.195800781;3.564;0.787109375;3.564;0.551757813;3.564;5.243902683;3.564;6.158536911;3.564;0.731707335
0.246258621;1.86313E-05;0.246258621;-0.000203265;3.57075;0.198242188;3.57075;0.791992188;3.57075;0.548339844;3.57075;4.451219559;3.57075;6.951219559;3.57075;1.036585331
0.246724138;1.91348E-05;0.246724138;-0.000140826;3.5775;0.194824219;3.5775;0.790039063;3.5775;0.545898438;3.5775;3.597561121;3.5775;7.378048897;3.5775;0.731707335
0.247189655;2.26596E-05;0.247189655;-7.9057E-05;3.58425;0.200195313;3.58425;0.787109375;3.58425;0.541992188;3.58425;3.841463566;3.58425;7.560975552;3.58425;0.365853667
0.247655172;2.23239E-05;0.247655172;-2.04776E-05;3.591;0.200683594;3.591;0.783691406;3.591;0.541992188;3.591;4.085365772;3.591;7.5;3.591;0.426829278
0.24812069;2.09812E-05;0.24812069;5.89151E-05;3.59775;0.197753906;3.59775;0.78515625;3.59775;0.534179688;3.59775;4.024390221;3.59775;7.439024448;3.59775;0.609756112
0.248586207;2.19883E-05;0.248586207;0.000158282;3.6045;0.198730469;3.6045;0.785644531;3.6045;0.536621094;3.6045;3.841463566;3.6045;7.560975552;3.6045;0.548780501
0.249051724;2.40024E-05;0.249051724;0.000246571;3.61125;0.197753906;3.61125;0.783691406;3.61125;0.540039063;3.61125;3.170731783;3.61125;7.98780489;3.61125;0.609756112
0.249517241;2.43381E-05;0.249517241;0.000314717;3.618;0.196777344;3.618;0.786132813;3.618;0.541992188;3.618;2.317073107;3.618;8.048780441;3.618;1.036585331
0.249982759;2.48417E-05;0.249982759;0.000390585;3.62475;0.198242188;3.62475;0.787109375;3.62475;0.544433594;3.62475;1.646341443;3.62475;8.231707573;3.62475;1.219512224
0.250448276;2.46738E-05;0.250448276;0.000488273;3.6315;0.19921875;3.6315;0.787109375;3.6315;0.545898438;3.6315;1.341463447;3.6315;7.926829338;3.6315;1.280487776
0.250913793;2.53452E-05;0.250913793;0.000599725;3.63825;0.195800781;3.63825;0.786132813;3.63825;0.550292969;3.63825;1.463414669;3.63825;7.98780489;3.63825;0.914634168
0.25137931;3.0045E-05;0.25137931;0.000722255;3.645;0.188476563;3.645;0.786621094;3.645;0.552246094;3.645;1.524390221;3.645;7.804878235;3.645;0.731707335
0.251844828;3.65911E-05;0.251844828;0.000842435;3.65175;0.188964844;3.65175;0.784179688;3.65175;0.548828125;3.65175;1.768292665;3.65175;7.5;3.65175;0.426829278
0.252310345;4.61585E-05;0.252310345;0.00094583;3.6585;0.191894531;3.6585;0.78515625;3.6585;0.546386719;3.6585;1.707317114;3.6585;7.560975552;3.6585;0.731707335
0.252775862;6.36149E-05;0.252775862;0.001042512;3.66525;0.190429688;3.66525;0.783691406;3.66525;0.543945313;3.66525;0.975609779;3.66525;7.743902683;3.66525;1.219512224
0.253241379;8.20783E-05;0.253241379;0.00113785;3.672;0.184082031;3.672;0.7734375;3.672;0.54296875;3.672;0.731707335;3.672;7.560975552;3.672;1.280487776
0.253706897;9.04707E-05;0.253706897;0.001213046;3.67875;0.183105469;3.67875;0.770507813;3.67875;0.539550781;3.67875;0.731707335;3.67875;6.951219559;3.67875;1.280487776
0.254172414;8.77852E-05;0.254172414;0.001285557;3.6855;0.181640625;3.6855;0.772949219;3.6855;0.5390625;3.6855;1.036585331;3.6855;6.951219559;3.6855;1.280487776
0.254637931;7.9057E-05;0.254637931;0.001366796;3.69225;0.189453125;3.69225;0.772460938;3.69225;0.536132813;3.69225;0.304878056;3.69225;7.195122242;3.69225;1.158536553
0.255103448;6.4622E-05;0.255103448;0.001419165;3.699;0.189941406;3.699;0.775390625;3.699;0.534667969;3.699;-0.853658557;3.699;6.219512463;3.699;1.402438998
0.255568966;4.58228E-05;0.255568966;0.001436957;3.70575;0.194335938;3.70575;0.772460938;3.70575;0.530273438;3.70575;-0.975609779;3.70575;5.609755993;3.70575;1.707317114
0.256034483;2.26596E-05;0.256034483;0.001448371;3.7125;0.193359375;3.7125;0.775390625;3.7125;0.529296875;3.7125;-0.792682946;3.7125;5.365853786;3.7125;2.01219511
0.2565;1.84634E-06;0.2565;0.001463477;3.71925;0.195800781;3.71925;0.776367188;3.71925;0.526855469;3.71925;-0.792682946;3.71925;5.670732021;3.71925;1.707317114
0.256965517;-1.46029E-05;0.256965517;0.001471534;3.726;0.190429688;3.726;0.777832031;3.726;0.519042969;3.726;-1.402438998;3.726;5.975609779;3.726;1.768292665
0.257431034;-2.92058E-05;0.257431034;0.001453742;3.73275;0.192382813;3.73275;0.775390625;3.73275;0.516601563;3.73275;-2.073170662;3.73275;6.219512463;3.73275;1.585365891
0.257896552;-4.28016E-05;0.257896552;0.001423865;3.7395;0.193847656;3.7395;0.773925781;3.7395;0.517089844;3.7395;-2.01219511;3.7395;6.097560883;3.7395;1.463414669
0.258362069;-5.00191E-05;0.258362069;0.001404395;3.74625;0.193847656;3.74625;0.772949219;3.74625;0.516113281;3.74625;-1.890243888;3.74625;6.219512463;3.74625;1.463414669
0.258827586;-5.18654E-05;0.258827586;0.00139852;3.753;0.194335938;3.753;0.763671875;3.753;0.520507813;3.753;-1.280487776;3.753;6.463414669;3.753;1.585365891
0.259293103;-5.1194E-05;0.259293103;0.001421851;3.75975;0.193847656;3.75975;0.76171875;3.75975;0.520019531;3.75975;-1.036585331;3.75975;6.768292904;3.75975;1.585365891
0.259758621;-4.7837E-05;0.259758621;0.001498222;3.7665;0.19140625;3.7665;0.755371094;3.7665;0.520996094;3.7665;-0.975609779;3.7665;6.829268456;3.7665;1.524390221
0.260224138;-4.28016E-05;0.260224138;0.001595743;3.77325;0.188964844;3.77325;0.750976563;3.77325;0.517089844;3.77325;-0.792682946;3.77325;6.524390221;3.77325;1.341463447
0.260689655;-3.57519E-05;0.260689655;0.001653819;3.78;0.183105469;3.78;0.748046875;3.78;0.522460938;3.78;-1.036585331;3.78;6.890244007;3.78;1.463414669
0.261155172;-2.90379E-05;0.261155172;0.001659861;3.78675;0.18359375;3.78675;0.747070313;3.78675;0.525878906;3.78675;-1.890243888;3.78675;6.951219559;3.78675;1.341463447
0.26162069;-2.08133E-05;0.26162069;0.001651469;3.7935;0.179199219;3.7935;0.748535156;3.7935;0.520996094;3.7935;-2.439024448;3.7935;7.01219511;3.7935;1.280487776
0.262086207;-1.32601E-05;0.262086207;0.001621927;3.80025;0.182128906;3.80025;0.751464844;3.80025;0.520507813;3.80025;-2.5;3.80025;6.707317352;3.80025;1.280487776
0.262551724;-9.56741E-06;0.262551724;0.001556466;3.807;0.186035156;3.807;0.75390625;3.807;0.517089844;3.807;-2.682926893;3.807;6.829268456;3.807;1.280487776
0.263017241;-9.23171E-06;0.263017241;0.001484291;3.81375;0.190429688;3.81375;0.754882813;3.81375;0.512695313;3.81375;-3.902439117;3.81375;7.13414669;3.81375;1.646341443
0.263482759;-8.89601E-06;0.263482759;0.001420508;3.8205;0.188964844;3.8205;0.748046875;3.8205;0.512207031;3.8205;-4.451219559;3.8205;7.13414669;3.8205;1.707317114
0.263948276;-6.88182E-06;0.263948276;0.001353368;3.82725;0.188964844;3.82725;0.744628906;3.82725;0.511230469;3.82725;-4.634146214;3.82725;6.768292904;3.82725;1.707317114
0.264413793;-3.52483E-06;0.264413793;0.001276493;3.834;0.189453125;3.834;0.748046875;3.834;0.509277344;3.834;-4.146341324;3.834;6.768292904;3.834;1.768292665
0.26487931;1.17494E-06;0.26487931;0.001230335;3.84075;0.187011719;3.84075;0.746582031;3.84075;0.5078125;3.84075;-3.170731783;3.84075;5.975609779;3.84075;1.707317114
0.265344828;5.87472E-06;0.265344828;0.001215396;3.8475;0.188964844;3.8475;0.744140625;3.8475;0.506835938;3.8475;-2.378048897;3.8475;5.609755993;3.8475;1.890243888
0.265810345;1.2253E-05;0.265810345;0.001204318;3.85425;0.187988281;3.85425;0.748046875;3.85425;0.508300781;3.85425;-2.256097555;3.85425;5.792683125;3.85425;2.01219511
0.266275862;1.59457E-05;0.266275862;0.001309728;3.861;0.183105469;3.861;0.7421875;3.861;0.506347656;3.861;-2.317073107;3.861;5.975609779;3.861;2.134146452
0.266741379;1.86313E-05;0.266741379;0.001969711;3.86775;0.184082031;3.86775;0.7421875;3.86775;0.505859375;3.86775;-2.5;3.86775;5.670732021;3.86775;1.951219559
0.267206897;2.06455E-05;0.267206897;0.003054688;3.8745;0.185546875;3.8745;0.743164063;3.8745;0.511230469;3.8745;-2.682926893;3.8745;5.670732021;3.8745;1.524390221
0.267672414;2.06455E-05;0.267672414;0.003951675;3.88125;0.189941406;3.88125;0.747070313;3.88125;0.513671875;3.88125;-3.048780441;3.88125;5.365853786;3.88125;1.402438998
0.268137931;1.86313E-05;0.268137931;0.004301473;3.888;0.194824219;3.888;0.751953125;3.888;0.514160156;3.888;-3.597561121;3.888;5.121951103;3.888;1.341463447
0.268603448;1.59457E-05;0.268603448;0.004210834;3.89475;0.197265625;3.89475;0.752929688;3.89475;0.513671875;3.89475;-3.719512224;3.89475;5.304878235;3.89475;1.280487776
0.269068966;1.35958E-05;0.269068966;0.003957046;3.9015;0.196777344;3.9015;0.748046875;3.9015;0.512207031;3.9015;-3.902439117;3.9015;5.670732021;3.9015;1.219512224
0.269534483;1.19173E-05;0.269534483;0.003683116;3.90825;0.196777344;3.90825;0.74609375;3.90825;0.514648438;3.90825;-3.170731783;3.90825;5.426829338;3.90825;1.219512224
0.27;1.14137E-05;0.27;0.003383505;3.915;0.196289063;3.915;0.741699219;3.915;0.515136719;3.915;-1.890243888;3.915;5.609755993;3.915;1.585365891
0.270465517;1.15816E-05;0.270465517;0.003050324;3.92175;0.191894531;3.92175;0.737304688;3.92175;0.514648438;3.92175;-1.402438998;3.92175;5.914634228;3.92175;2.073170662
0.270931034;1.14137E-05;0.270931034;0.002701869;3.9285;0.190917969;3.9285;0.742675781;3.9285;0.518554688;3.9285;-1.829268336;3.9285;6.646341801;3.9285;2.134146452
0.271396552;1.05745E-05;0.271396552;0.002352407;3.93525;0.188476563;3.93525;0.7421875;3.93525;0.520996094;3.93525;-2.256097555;3.93525;7.073170662;3.93525;2.01219511
0.271862069;1.05745E-05;0.271862069;0.002020737;3.942;0.188476563;3.942;0.743652344;3.942;0.524414063;3.942;-1.280487776;3.942;6.890244007;3.942;1.890243888
0.272327586;1.24208E-05;0.272327586;0.001714412;3.94875;0.188476563;3.94875;0.743652344;3.94875;0.526367188;3.94875;-0.182926834;3.94875;6.707317352;3.94875;1.646341443
0.272793103;1.64492E-05;0.272793103;0.001426551;3.9555;0.186523438;3.9555;0.748046875;3.9555;0.527832031;3.9555;0.182926834;3.9555;6.402439117;3.9555;1.707317114
0.273258621;2.01419E-05;0.273258621;0.001149264;3.96225;0.192871094;3.96225;0.752441406;3.96225;0.524414063;3.96225;-0.609756112;3.96225;5.914634228;3.96225;1.829268336
0.273724138;1.99741E-05;0.273724138;0.000876677;3.969;0.193847656;3.969;0.754394531;3.969;0.525878906;3.969;-1.097561002;3.969;6.158536911;3.969;1.768292665
0.274189655;1.71206E-05;0.274189655;0.000606439;3.97575;0.196777344;3.97575;0.755859375;3.97575;0.522460938;3.97575;-1.646341443;3.97575;6.219512463;3.97575;1.524390221
0.274655172;1.29244E-05;0.274655172;0.000342077;3.9825;0.1953125;3.9825;0.7578125;3.9825;0.521972656;3.9825;-1.158536553;3.9825;5.975609779;3.9825;1.402438998
0.27512069;1.05745E-05;0.27512069;0.000103227;3.98925;0.198242188;3.98925;0.760742188;3.98925;0.518554688;3.98925;-0.48780489;3.98925;5.548780441;3.98925;1.524390221
0.275586207;1.0071E-05;0.275586207;-0.000108263;3.996;0.194335938;3.996;0.761230469;3.996;0.518554688;3.996;-0.365853667;3.996;5.975609779;3.996;1.768292665
0.276051724;9.9031E-06;0.276051724;-0.00029189;4.00275;0.197265625;4.00275;0.7578125;4.00275;0.520019531;4.00275;-0.121951222;4.00275;6.585365772;4.00275;1.585365891
0.276517241;1.04067E-05;0.276517241;-0.000443626;4.0095;0.1953125;4.0095;0.758300781;4.0095;0.515136719;4.0095;0.121951222;4.0095;7.439024448;4.0095;1.585365891
0.276982759;1.05745E-05;0.276982759;-0.000544335;4.01625;0.194824219;4.01625;0.760253906;4.01625;0.518554688;4.01625;0.609756112;4.01625;7.62195158;4.01625;1.402438998
0.277448276;7.88891E-06;0.277448276;-0.000549538;4.023;0.196777344;4.023;0.756347656;4.023;0.522460938;4.023;1.036585331;4.023;7.439024448;4.023;1.219512224
0.277913793;4.53193E-06;0.277913793;-0.000444129;4.02975;0.201660156;4.02975;0.756347656;4.02975;0.527832031;4.02975;1.158536553;4.02975;7.01219511;4.02975;1.402438998
0.27837931;3.52483E-06;0.27837931;-0.000296254;4.0365;0.19921875;4.0365;0.755859375;4.0365;0.529785156;4.0365;1.463414669;4.0365;6.707317352;4.0365;1.585365891
0.278844828;4.69978E-06;0.278844828;-0.000209644;4.04325;0.193847656;4.04325;0.754882813;4.04325;0.524414063;4.04325;1.646341443;4.04325;6.402439117;4.04325;1.585365891
0.279310345;7.21752E-06;0.279310345;-0.000236835;4.05;0.189941406;4.05;0.756835938;4.05;0.527832031;4.05;1.524390221;4.05;6.402439117;4.05;1.585365891
0.279775862;1.04067E-05;0.279775862;-0.000353323;4.05675;0.186035156;4.05675;0.759277344;4.05675;0.526855469;4.05675;0.792682946;4.05675;7.5;4.05675;1.585365891
0.280241379;9.23171E-06;0.280241379;-0.000414588;4.0635;0.190429688;4.0635;0.749511719;4.0635;0.528808594;4.0635;0.548780501;4.0635;7.62195158;4.0635;1.341463447
0.280706897;4.19623E-06;0.280706897;-0.000407706;4.07025;0.193359375;4.07025;0.747558594;4.07025;0.527832031;4.07025;0.914634168;4.07025;6.829268456;4.07025;1.219512224
0.281172414;1.17494E-06;0.281172414;-0.000494316;4.077;0.202148438;4.077;0.751953125;4.077;0.525390625;4.077;1.097561002;4.077;6.890244007;4.077;1.341463447
0.281637931;4.19623E-06;0.281637931;-0.000725612;4.08375;0.200195313;4.08375;0.761230469;4.08375;0.5234375;4.08375;0.426829278;4.08375;7.317073345;4.08375;1.646341443
0.282103448;1.02388E-05;0.282103448;-0.000922667;4.0905;0.196289063;4.0905;0.760742188;4.0905;0.526855469;4.0905;0.365853667;4.0905;7.256097794;4.0905;1.646341443
0.282568966;1.42672E-05;0.282568966;-0.00103093;4.09725;0.197265625;4.09725;0.761230469;4.09725;0.527832031;4.09725;0.609756112;4.09725;7.073170662;4.09725;1.585365891
0.283034483;1.66171E-05;0.283034483;-0.001175113;4.104;0.199707031;4.104;0.765625;4.104;0.526855469;4.104;0.792682946;4.104;6.646341801;4.104;1.768292665
0.2835;1.93027E-05;0.2835;-0.001283879;4.11075;0.198242188;4.11075;0.761230469;4.11075;0.526855469;4.11075;0.975609779;4.11075;6.829268456;4.11075;1.829268336
0.283965517;2.40024E-05;0.283965517;-0.001275822;4.1175;0.19921875;4.1175;0.767089844;4.1175;0.526855469;4.1175;0.48780489;4.1175;7.073170662;4.1175;1.890243888
0.284431034;2.50095E-05;0.284431034;-0.00120734;4.12425;0.196777344;4.12425;0.764648438;4.12425;0.523925781;4.12425;-0.121951222;4.12425;7.743902683;4.12425;1.890243888
0.284896552;2.13169E-05;0.284896552;-0.00122211;4.131;0.195800781;4.131;0.758789063;4.131;0.522460938;4.131;-0.304878056;4.131;7.926829338;4.131;1.646341443
0.285362069;2.09812E-05;0.285362069;-0.001366629;4.13775;0.197265625;4.13775;0.756835938;4.13775;0.5234375;4.13775;0.365853667;4.13775;7.804878235;4.13775;1.402438998
0.285827586;2.23239E-05;0.285827586;-0.001580636;4.1445;0.196777344;4.1445;0.756835938;4.1445;0.527832031;4.1445;0.792682946;4.1445;7.926829338;4.1445;1.585365891
0.286293103;2.06455E-05;0.286293103;-0.001749493;4.15125;0.192382813;4.15125;0.757324219;4.15125;0.528808594;4.15125;0.670731723;4.15125;7.865853786;4.15125;1.890243888
0.286758621;1.72885E-05;0.286758621;-0.001784405;4.158;0.190429688;4.158;0.752441406;4.158;0.528808594;4.158;0.548780501;4.158;7.5;4.158;2.01219511
0.287224138;1.46029E-05;0.287224138;-0.001841978;4.16475;0.191894531;4.16475;0.749023438;4.16475;0.533203125;4.16475;0.609756112;4.16475;6.890244007;4.16475;1.768292665
0.287689655;1.46029E-05;0.287689655;-0.002058503;4.1715;0.190917969;4.1715;0.751953125;4.1715;0.532714844;4.1715;0.792682946;4.1715;6.768292904;4.1715;1.829268336
0.288155172;1.39315E-05;0.288155172;-0.002266804;4.17825;0.195800781;4.17825;0.752441406;4.17825;0.532226563;4.17825;0.48780489;4.17825;6.707317352;4.17825;2.01219511
0.28862069;1.17494E-05;0.28862069;-0.002288121;4.185;0.194335938;4.185;0.757324219;4.185;0.533691406;4.185;-0.121951222;4.185;7.378048897;4.185;2.134146452
0.289086207;1.25887E-05;0.289086207;-0.002247669;4.19175;0.190917969;4.19175;0.758789063;4.19175;0.528808594;4.19175;-0.731707335;4.19175;8.231707573;4.19175;1.890243888
0.289551724;1.79599E-05;0.289551724;-0.002290471;4.1985;0.188476563;4.1985;0.754394531;4.1985;0.5234375;4.1985;-1.585365891;4.1985;8.536585808;4.1985;1.646341443
0.290017241;2.19883E-05;0.290017241;-0.002425757;4.20525;0.191894531;4.20525;0.75390625;4.20525;0.525878906;4.20525;-1.280487776;4.20525;7.439024448;4.20525;1.829268336
0.290482759;1.86313E-05;0.290482759;-0.002557015;4.212;0.19921875;4.212;0.75390625;4.212;0.525390625;4.212;-0.731707335;4.212;7.317073345;4.212;1.890243888
0.290948276;7.72107E-06;0.290948276;-0.002517403;4.21875;0.19921875;4.21875;0.757324219;4.21875;0.518554688;4.21875;-0.243902445;4.21875;7.13414669;4.21875;2.073170662
0.291413793;-7.21752E-06;0.291413793;-0.002345022;4.2255;0.198730469;4.2255;0.75390625;4.2255;0.520996094;4.2255;-0.060975611;4.2255;6.829268456;4.2255;2.621951342
0.29187931;-1.96384E-05;0.29187931;-0.002261097;4.23225;0.198730469;4.23225;0.75390625;4.23225;0.525878906;4.23225;0.243902445;4.23225;6.585365772;4.23225;2.560975552
0.292344828;-2.93736E-05;0.292344828;-0.002316823;4.239;0.196777344;4.239;0.754394531;4.239;0.526367188;4.239;0.48780489;4.239;6.829268456;4.239;2.256097555
0.292810345;-3.70947E-05;0.292810345;-0.002354925;4.24575;0.195800781;4.24575;0.756835938;4.24575;0.523925781;4.24575;0.365853667;4.24575;7.439024448;4.24575;1.890243888
0.293275862;-3.6759E-05;0.293275862;-0.002240955;4.2525;0.195800781;4.2525;0.7578125;4.2525;0.52734375;4.2525;0.182926834;4.2525;7.926829338;4.2525;1.890243888
0.293741379;-2.97093E-05;0.293741379;-0.002032822;4.25925;0.191894531;4.25925;0.754882813;4.25925;0.526367188;4.25925;-0.060975611;4.25925;8.353658676;4.25925;2.01219511
0.294206897;-2.23239E-05;0.294206897;-0.001891829;4.266;0.188476563;4.266;0.748046875;4.266;0.525390625;4.266;-0.243902445;4.266;8.719511986;4.266;1.890243888
0.294672414;-1.62814E-05;0.294672414;-0.001928756;4.27275;0.184082031;4.27275;0.747070313;4.27275;0.52734375;4.27275;-0.731707335;4.27275;8.841464043;4.27275;1.707317114
0.295137931;-8.89601E-06;0.295137931;-0.002067567;4.2795;0.184570313;4.2795;0.743652344;4.2795;0.526855469;4.2795;-0.792682946;4.2795;8.10975647;4.2795;1.951219559
0.295603448;-4.19623E-06;0.295603448;-0.002166094;4.28625;0.182128906;4.28625;0.743164063;4.28625;0.529785156;4.28625;-0.182926834;4.28625;7.682927132;4.28625;1.951219559
0.296068966;-2.18204E-06;0.296068966;-0.002161395;4.293;0.184082031;4.293;0.747558594;4.293;0.533691406;4.293;0.365853667;4.293;7.073170662;4.293;1.707317114
0.296534483;-2.85344E-06;0.296534483;-0.002080827;4.29975;0.187988281;4.29975;0.749511719;4.29975;0.532714844;4.29975;0.792682946;4.29975;6.463414669;4.29975;1.890243888
0.297;-5.53903E-06;0.297;-0.001979446;4.3065;0.188476563;4.3065;0.75;4.3065;0.532226563;4.3065;1.097561002;4.3065;6.463414669;4.3065;1.829268336
0.297465517;-6.21042E-06;0.297465517;-0.001923217;4.31325;0.195800781;4.31325;0.745605469;4.31325;0.532226563;4.31325;1.646341443;4.31325;6.463414669;4.31325;1.890243888
0.297931034;-4.19623E-06;0.297931034;-0.001926909;4.32;0.197753906;4.32;0.747070313;4.32;0.526855469;4.32;1.097561002;4.32;6.829268456;4.32;1.707317114
0.298396552;-3.86053E-06;0.298396552;-0.001906264;4.32675;0.197265625;4.32675;0.745605469;4.32675;0.524902344;4.32675;0.731707335;4.32675;7.01219511;4.32675;1.585365891
0.298862069;-6.54612E-06;0.298862069;-0.001781384;4.3335;0.193847656;4.3335;0.75;4.3335;0.528808594;4.3335;0.48780489;4.3335;7.378048897;4.3335;1.768292665
0.299327586;-5.70687E-06;0.299327586;-0.001568215;4.34025;0.193359375;4.34025;0.758789063;4.34025;0.524414063;4.34025;0.48780489;4.34025;7.560975552;4.34025;1.585365891
0.299793103;-5.03548E-07;0.299793103;-0.001273472;4.347;0.19140625;4.347;0.760742188;4.347;0.520019531;4.347;0.731707335;4.347;7.865853786;4.347;1.463414669
0.300258621;4.19623E-06;0.300258621;-0.00120499;4.35375;0.190917969;4.35375;0.760253906;4.35375;0.51953125;4.35375;1.524390221;4.35375;7.804878235;4.35375;1.341463447
0.300724138;5.87472E-06;0.300724138;-0.001352026;4.3605;0.188476563;4.3605;0.758300781;4.3605;0.5234375;4.3605;2.621951342;4.3605;7.743902683;4.3605;1.219512224
0.301189655;5.20333E-06;0.301189655;-0.001045869;4.36725;0.185546875;4.36725;0.754882813;4.36725;0.520507813;4.36725;3.414634228;4.36725;7.073170662;4.36725;1.524390221
0.301655172;2.51774E-06;0.301655172;-0.000142504;4.374;0.186523438;4.374;0.75;4.374;0.520996094;4.374;3.475609779;4.374;6.951219559;4.374;1.463414669
0.30212069;1.17494E-06;0.30212069;0.000855528;4.38075;0.186035156;4.38075;0.744628906;4.38075;0.524414063;4.38075;3.414634228;4.38075;6.768292904;4.38075;1.463414669
0.302586207;4.86763E-06;0.302586207;0.001535988;4.3875;0.188476563;4.3875;0.746582031;4.3875;0.527832031;4.3875;3.231707335;4.3875;7.195122242;4.3875;1.524390221
0.303051724;8.89601E-06;0.303051724;0.001902571;4.39425;0.187988281;4.39425;0.750976563;4.39425;0.526367188;4.39425;2.682926893;4.39425;7.743902683;4.39425;1.219512224
0.303517241;1.15816E-05;0.303517241;0.002065385;4.401;0.185546875;4.401;0.752441406;4.401;0.526367188;4.401;2.621951342;4.401;7.256097794;4.401;0.975609779
0.303982759;1.39315E-05;0.303982759;0.002147631;4.40775;0.188964844;4.40775;0.754394531;4.40775;0.528320313;4.40775;2.317073107;4.40775;7.5;4.40775;0.853658557
0.304448276;1.46029E-05;0.304448276;0.002163745;4.4145;0.189453125;4.4145;0.752441406;4.4145;0.534667969;4.4145;2.317073107;4.4145;7.682927132;4.4145;0.914634168
0.304913793;1.46029E-05;0.304913793;0.002035508;4.42125;0.190917969;4.42125;0.748046875;4.42125;0.534667969;4.42125;2.439024448;4.42125;7.195122242;4.42125;0.731707335
0.30537931;1.66171E-05;0.30537931;0.001809751;4.428;0.192382813;4.428;0.748535156;4.428;0.529785156;4.428;2.378048897;4.428;7.073170662;4.428;0.914634168
0.305844828;1.86313E-05;0.305844828;0.001548074;4.43475;0.189941406;4.43475;0.750976563;4.43475;0.524414063;4.43475;2.5;4.43475;7.378048897;4.43475;1.036585331
0.306310345;1.93027E-05;0.306310345;0.001246952;4.4415;0.188476563;4.4415;0.750488281;4.4415;0.527832031;4.4415;2.134146452;4.4415;7.195122242;4.4415;1.341463447
0.306775862;1.49386E-05;0.306775862;0.000903532;4.44825;0.1875;4.44825;0.750976563;4.44825;0.528808594;4.44825;1.829268336;4.44825;6.768292904;4.44825;1.585365891
0.307241379;9.56741E-06;0.307241379;0.000542321;4.455;0.192871094;4.455;0.758789063;4.455;0.520019531;4.455;0.914634168;4.455;6.951219559;4.455;1.829268336
0.307706897;8.89601E-06;0.307706897;0.000237171;4.46175;0.188964844;4.46175;0.760253906;4.46175;0.519042969;4.46175;0.426829278;4.46175;6.951219559;4.46175;1.768292665
0.308172414;1.10781E-05;0.308172414;4.17945E-05;4.4685;0.192382813;4.4685;0.763183594;4.4685;0.520996094;4.4685;0.731707335;4.4685;7.195122242;4.4685;1.646341443
0.308637931;1.67849E-05;0.308637931;7.30144E-05;4.47525;0.195800781;4.47525;0.762695313;4.47525;0.519042969;4.47525;1.341463447;4.47525;6.890244007;4.47525;1.707317114
0.309103448;2.73594E-05;0.309103448;0.000368933;4.482;0.193847656;4.482;0.760742188;4.482;0.521484375;4.482;1.768292665;4.482;6.280488014;4.482;1.829268336
0.309568966;4.0116E-05;0.309568966;0.000759014;4.48875;0.192382813;4.48875;0.762695313;4.48875;0.525390625;4.48875;1.890243888;4.48875;6.097560883;4.48875;1.646341443
0.310034483;4.93477E-05;0.310034483;0.001111666;4.4955;0.195800781;4.4955;0.763671875;4.4955;0.53125;4.4955;2.073170662;4.4955;6.036585331;4.4955;1.524390221
0.3105;5.15297E-05;0.3105;0.001406912;4.50225;0.198242188;4.50225;0.763183594;4.50225;0.529785156;4.50225;1.890243888;4.50225;6.402439117;4.50225;1.402438998
0.310965517;5.01869E-05;0.310965517;0.001620584;4.509;0.197265625;4.509;0.757324219;4.509;0.530273438;4.509;1.829268336;4.509;6.951219559;4.509;1.524390221
0.311431034;4.59907E-05;0.311431034;0.001640726;4.51575;0.193359375;4.51575;0.750976563;4.51575;0.53125;4.51575;1.402438998;4.51575;7.682927132;4.51575;1.402438998
0.311896552;3.6759E-05;0.311896552;0.001448707;4.5225;0.189453125;4.5225;0.748535156;4.5225;0.53515625;4.5225;1.097561002;4.5225;8.10975647;4.5225;1.158536553
0.312362069;2.36667E-05;0.312362069;0.001157992;4.52925;0.188964844;4.52925;0.751953125;4.52925;0.536132813;4.52925;0.365853667;4.52925;8.353658676;4.52925;0.853658557
0.312827586;1.25887E-05;0.312827586;0.000827665;4.536;0.191894531;4.536;0.75390625;4.536;0.537109375;4.536;-0.243902445;4.536;8.536585808;4.536;1.097561002
0.313293103;4.36408E-06;0.313293103;0.000448325;4.54275;0.191894531;4.54275;0.764648438;4.54275;0.538085938;4.54275;-0.853658557;4.54275;8.841464043;4.54275;1.097561002
0.313758621;-8.39246E-07;0.313758621;0.000161807;4.5495;0.188964844;4.5495;0.765625;4.5495;0.541015625;4.5495;-1.158536553;4.5495;8.536585808;4.5495;1.036585331
0.314224138;-4.19623E-06;0.314224138;0.000176242;4.55625;0.191894531;4.55625;0.765136719;4.55625;0.5390625;4.55625;-0.48780489;4.55625;7.804878235;4.55625;1.036585331
0.314689655;-5.53903E-06;0.314689655;0.000401328;4.563;0.192382813;4.563;0.764160156;4.563;0.536132813;4.563;-0.365853667;4.563;7.5;4.563;1.158536553
0.315155172;-8.89601E-06;0.315155172;0.00066183;4.56975;0.196289063;4.56975;0.766113281;4.56975;0.534667969;4.56975;-0.243902445;4.56975;7.13414669;4.56975;1.524390221
0.31562069;-8.89601E-06;0.31562069;0.001040162;4.5765;0.197265625;4.5765;0.764648438;4.5765;0.533691406;4.5765;-0.609756112;4.5765;7.073170662;4.5765;1.829268336
0.316086207;-3.18914E-06;0.316086207;0.001453407;4.58325;0.199707031;4.58325;0.765136719;4.58325;0.530761719;4.58325;-1.280487776;4.58325;6.890244007;4.58325;1.951219559
0.316551724;2.85344E-06;0.316551724;0.001676814;4.59;0.200195313;4.59;0.770996094;4.59;0.530761719;4.59;-1.402438998;4.59;6.951219559;4.59;2.073170662
0.317017241;3.86053E-06;0.317017241;0.00155848;4.59675;0.194824219;4.59675;0.779785156;4.59675;0.532226563;4.59675;-1.463414669;4.59675;7.5;4.59675;2.134146452
0.317482759;-4.36408E-06;0.317482759;0.001154467;4.6035;0.190429688;4.6035;0.774902344;4.6035;0.533691406;4.6035;-1.524390221;4.6035;7.98780489;4.6035;2.134146452
0.317948276;-2.03098E-05;0.317948276;0.000693385;4.61025;0.191894531;4.61025;0.771484375;4.61025;0.536132813;4.61025;-1.341463447;4.61025;8.414634705;4.61025;2.073170662
0.318413793;-3.37377E-05;0.318413793;0.000300618;4.617;0.197753906;4.617;0.768066406;4.617;0.536132813;4.617;-1.402438998;4.617;9.024390221;4.617;1.768292665
0.31887931;-3.64233E-05;0.31887931;0.00013579;4.62375;0.194824219;4.62375;0.766113281;4.62375;0.540039063;4.62375;-1.951219559;4.62375;8.719511986;4.62375;1.707317114
0.319344828;-2.90379E-05;0.319344828;0.000301961;4.6305;0.1953125;4.6305;0.763671875;4.6305;0.542480469;4.6305;-2.073170662;4.6305;8.292682648;4.6305;1.829268336
0.319810345;-1.82956E-05;0.319810345;0.000540978;4.63725;0.190429688;4.63725;0.765625;4.63725;0.549804688;4.63725;-2.134146452;4.63725;8.048780441;4.63725;1.890243888
0.320275862;-1.02388E-05;0.320275862;0.00060325;4.644;0.188964844;4.644;0.774902344;4.644;0.549804688;4.644;-2.378048897;4.644;7.743902683;4.644;2.195122004
0.320741379;-1.05745E-05;0.320741379;0.000539971;4.65075;0.1875;4.65075;0.77734375;4.65075;0.548828125;4.65075;-3.048780441;4.65075;7.98780489;4.65075;2.073170662
0.321206897;-1.79599E-05;0.321206897;0.000510765;4.6575;0.190917969;4.6575;0.778808594;4.6575;0.546875;4.6575;-3.780487776;4.6575;7.5;4.6575;1.951219559
0.321672414;-2.03098E-05;0.321672414;0.000528725;4.66425;0.194824219;4.66425;0.772949219;4.66425;0.551757813;4.66425;-3.658536673;4.66425;7.560975552;4.66425;2.378048897
0.322137931;-1.25887E-05;0.322137931;0.000528222;4.671;0.191894531;4.671;0.764160156;4.671;0.544921875;4.671;-3.292682886;4.671;7.439024448;4.671;2.560975552
0.322603448;-3.69268E-06;0.322603448;0.000329152;4.67775;0.192382813;4.67775;0.760742188;4.67775;0.544921875;4.67775;-3.231707335;4.67775;7.378048897;4.67775;2.439024448
0.323068966;-3.86053E-06;0.323068966;0.000291554;4.6845;0.191894531;4.6845;0.76171875;4.6845;0.546386719;4.6845;-3.109756231;4.6845;7.256097794;4.6845;2.256097555
0.323534483;-7.55322E-06;0.323534483;0.00084445;4.69125;0.193847656;4.69125;0.761230469;4.69125;0.546386719;4.69125;-3.292682886;4.69125;6.829268456;4.69125;2.5
0.324;-5.87472E-06;0.324;0.001397345;4.698;0.192382813;4.698;0.764648438;4.698;0.541992188;4.698;-3.536585331;4.698;6.768292904;4.698;2.5
0.324465517;1.84634E-06;0.324465517;0.001663386;4.70475;0.194824219;4.70475;0.770507813;4.70475;0.538085938;4.70475;-3.353658676;4.70475;7.01219511;4.70475;2.5
0.324931034;1.02388E-05;0.324931034;0.001786419;4.7115;0.191894531;4.7115;0.770996094;4.7115;0.539550781;4.7115;-3.353658676;4.7115;7.01219511;4.7115;2.256097555
0.325396552;1.42672E-05;0.325396552;0.001673625;4.71825;0.198242188;4.71825;0.763671875;4.71825;0.54296875;4.71825;-3.597561121;4.71825;7.439024448;4.71825;2.378048897
0.325862069;1.49386E-05;0.325862069;0.001070375;4.725;0.199707031;4.725;0.762695313;4.725;0.541503906;4.725;-3.963414669;4.725;7.804878235;4.725;2.317073107
0.326327586;1.49386E-05;0.326327586;-0.000191852;4.73175;0.195800781;4.73175;0.760253906;4.73175;0.535644531;4.73175;-4.390244007;4.73175;8.10975647;4.73175;2.804877996
0.326793103;1.66171E-05;0.326793103;-0.001477577;4.7385;0.197265625;4.7385;0.76171875;4.7385;0.532714844;4.7385;-5.182927132;4.7385;8.048780441;4.7385;2.98780489
0.327258621;1.93027E-05;0.327258621;-0.002034836;4.74525;0.196289063;4.74525;0.760742188;4.74525;0.533203125;4.74525;-5.243902683;4.74525;7.682927132;4.74525;3.231707335
0.327724138;2.26596E-05;0.327724138;-0.001961654;4.752;0.189941406;4.752;0.753417969;4.752;0.537597656;4.752;-4.634146214;4.752;7.195122242;4.752;3.292682886
0.328189655;2.65202E-05;0.328189655;-0.001675303;4.75875;0.1875;4.75875;0.750488281;4.75875;0.538574219;4.75875;-4.146341324;4.75875;6.768292904;4.75875;3.048780441
0.328655172;2.90379E-05;0.328655172;-0.00160145;4.7655;0.189453125;4.7655;0.744628906;4.7655;0.534667969;4.7655;-4.329268456;4.7655;6.463414669;4.7655;2.926829338
0.32912069;3.13878E-05;0.32912069;-0.001787762;4.77225;0.191894531;4.77225;0.744140625;4.77225;0.534179688;4.77225;-4.817073345;4.77225;7.01219511;4.77225;3.170731783
0.329586207;3.54162E-05;0.329586207;-0.001853559;4.779;0.1875;4.779;0.737304688;4.779;0.539550781;4.779;-4.939024448;4.779;7.439024448;4.779;2.926829338
0.330051724;4.0116E-05;0.330051724;-0.001095552;4.78575;0.182617188;4.78575;0.739257813;4.78575;0.54296875;4.78575;-4.634146214;4.78575;7.62195158;4.78575;2.926829338
0.330517241;4.48157E-05;0.330517241;0.000383703;4.7925;0.182617188;4.7925;0.738769531;4.7925;0.538574219;4.7925;-4.573170662;4.7925;8.048780441;4.7925;2.804877996
0.330982759;4.68299E-05;0.330982759;0.001919356;4.79925;0.184082031;4.79925;0.736328125;4.79925;0.538085938;4.79925;-4.817073345;4.79925;7.865853786;4.79925;2.743902445
0.331448276;4.80049E-05;0.331448276;0.003356817;4.806;0.187011719;4.806;0.73828125;4.806;0.540039063;4.806;-4.878048897;4.806;7.62195158;4.806;2.865853786
0.331913793;5.01869E-05;0.331913793;0.004721767;4.81275;0.188476563;4.81275;0.741210938;4.81275;0.537109375;4.81275;-4.939024448;4.81275;7.560975552;4.81275;2.682926893
0.33237931;5.28725E-05;0.33237931;0.00547306;4.8195;0.185546875;4.8195;0.737304688;4.8195;0.537109375;4.8195;-4.268292904;4.8195;7.317073345;4.8195;2.560975552
0.332844828;5.65652E-05;0.332844828;0.005479103;4.82625;0.186523438;4.82625;0.732421875;4.82625;0.533691406;4.82625;-3.536585331;4.82625;6.951219559;4.82625;2.926829338
0.333310345;6.05936E-05;0.333310345;0.005479774;4.833;0.185058594;4.833;0.729003906;4.833;0.53125;4.833;-3.170731783;4.833;7.01219511;4.833;3.292682886
0.333775862;6.32792E-05;0.333775862;0.005479774;4.83975;0.185058594;4.83975;0.726074219;4.83975;0.529296875;4.83975;-3.048780441;4.83975;6.890244007;4.83975;3.170731783
0.334241379;6.49577E-05;0.334241379;0.00426186;4.8465;0.192382813;4.8465;0.724121094;4.8465;0.527832031;4.8465;-3.292682886;4.8465;6.524390221;4.8465;3.048780441
0.334706897;6.29435E-05;0.334706897;0.002321523;4.85325;0.196777344;4.85325;0.731445313;4.85325;0.52734375;4.85325;-3.963414669;4.85325;6.341463566;4.85325;3.109756231
0.335172414;5.69009E-05;0.335172414;0.001209018;4.86;0.192871094;4.86;0.740234375;4.86;0.525878906;4.86;-4.207317352;4.86;6.646341801;4.86;3.170731783
0.335637931;5.05226E-05;0.335637931;0.000461418;4.86675;0.190429688;4.86675;0.745117188;4.86675;0.526855469;4.86675;-4.51219511;4.86675;7.439024448;4.86675;3.170731783
0.336103448;4.17945E-05;0.336103448;-0.00017406;4.8735;0.188476563;4.8735;0.741210938;4.8735;0.526855469;4.8735;-3.841463566;4.8735;7.743902683;4.8735;2.804877996
0.336568966;3.47448E-05;0.336568966;-0.000829007;4.88025;0.185546875;4.88025;0.739257813;4.88025;0.530761719;4.88025;-2.439024448;4.88025;7.5;4.88025;2.5
0.337034483;3.07164E-05;0.337034483;-0.001454749;4.887;0.189941406;4.887;0.726074219;4.887;0.528320313;4.887;-1.585365891;4.887;7.13414669;4.887;2.317073107
0.3375;2.83665E-05;0.3375;-0.00196434;4.89375;0.190429688;4.89375;0.723144531;4.89375;0.528320313;4.89375;-1.646341443;4.89375;7.317073345;4.89375;2.256097555
0.337965517;2.80308E-05;0.337965517;-0.002326558;4.9005;0.190917969;4.9005;0.725097656;4.9005;0.525390625;4.9005;-2.560975552;4.9005;8.048780441;4.9005;2.134146452
0.338431034;2.90379E-05;0.338431034;-0.002576318;4.90725;0.19140625;4.90725;0.723632813;4.90725;0.529785156;4.90725;-2.804877996;4.90725;8.170731544;4.90725;1.951219559
0.338896552;2.40024E-05;0.338896552;-0.002785626;4.914;0.193847656;4.914;0.721191406;4.914;0.533691406;4.914;-2.134146452;4.914;7.926829338;4.914;2.01219511
0.339362069;1.19173E-05;0.339362069;-0.002989395;4.92075;0.192871094;4.92075;0.720214844;4.92075;0.537597656;4.92075;-1.524390221;4.92075;7.682927132;4.92075;2.134146452
0.339827586;8.39246E-07;0.339827586;-0.00313106;4.9275;0.19140625;4.9275;0.72265625;4.9275;0.536621094;4.9275;-1.646341443;4.9275;7.439024448;4.9275;2.256097555
0.340293103;-7.21752E-06;0.340293103;-0.003238483;4.93425;0.189453125;4.93425;0.721191406;4.93425;0.541015625;4.93425;-1.585365891;4.93425;7.195122242;4.93425;2.195122004
0.340758621;-1.46029E-05;0.340758621;-0.003493278;4.941;0.1875;4.941;0.725097656;4.941;0.544921875;4.941;-1.524390221;4.941;7.317073345;4.941;2.195122004
0.341224138;-1.8967E-05;0.341224138;-0.003908705;4.94775;0.189941406;4.94775;0.729492188;4.94775;0.545410156;4.94775;-1.341463447;4.94775;7.865853786;4.94775;1.646341443
0.341689655;-2.23239E-05;0.341689655;-0.004240375;4.9545;0.187011719;4.9545;0.733886719;4.9545;0.54296875;4.9545;-1.280487776;4.9545;7.98780489;4.9545;1.646341443
0.342155172;-2.23239E-05;0.342155172;-0.004316915;4.96125;0.190429688;4.96125;0.734863281;4.96125;0.539550781;4.96125;-1.036585331;4.96125;7.317073345;4.96125;1.890243888
0.34262069;-1.69528E-05;0.34262069;-0.004180285;4.968;0.192382813;4.968;0.729003906;4.968;0.538085938;4.968;-0.975609779;4.968;7.317073345;4.968;2.134146452
0.343086207;-1.05745E-05;0.343086207;-0.003927169;4.97475;0.193359375;4.97475;0.725585938;4.97475;0.536132813;4.97475;-0.853658557;4.97475;7.195122242;4.97475;2.01219511
0.343551724;-6.04257E-06;0.343551724;-0.003638804;4.9815;0.193359375;4.9815;0.725097656;4.9815;0.536621094;4.9815;-0.365853667;4.9815;7.01219511;4.9815;1.951219559
0.344017241;-2.85344E-06;0.344017241;-0.00339559;4.98825;0.196777344;4.98825;0.73046875;4.98825;0.537597656;4.98825;-0.182926834;4.98825;7.01219511;4.98825;2.134146452
0.344482759;-2.34989E-06;0.344482759;-0.003215991;4.995;0.195800781;4.995;0.736328125;4.995;0.538085938;4.995;-0.121951222;4.995;6.890244007;4.995;1.951219559
0.344948276;-4.19623E-06;0.344948276;-0.003079194;5.00175;0.200195313;5.00175;0.741699219;5.00175;0.539550781;5.00175;0.060975611;5.00175;6.280488014;5.00175;2.01219511
0.345413793;-8.22461E-06;0.345413793;-0.002949951;5.0085;0.198730469;5.0085;0.742675781;5.0085;0.541992188;5.0085;0.304878056;5.0085;6.219512463;5.0085;2.073170662
0.34587931;-9.9031E-06;0.34587931;-0.002781766;5.01525;0.200683594;5.01525;0.740722656;5.01525;0.545898438;5.01525;0.731707335;5.01525;6.158536911;5.01525;1.768292665
0.346344828;-1.02388E-05;0.346344828;-0.002588403;5.022;0.19921875;5.022;0.735351563;5.022;0.548339844;5.022;1.036585331;5.022;6.890244007;5.022;1.585365891
0.346810345;-1.24208E-05;0.346810345;-0.002428778;5.02875;0.194824219;5.02875;0.736816406;5.02875;0.544433594;5.02875;0.548780501;5.02875;7.926829338;5.02875;1.280487776
0.347275862;-1.86313E-05;0.347275862;-0.002290974;5.0355;0.192382813;5.0355;0.729003906;5.0355;0.544433594;5.0355;0.243902445;5.0355;8.536585808;5.0355;1.219512224
0.347741379;-2.36667E-05;0.347741379;-0.002125475;5.04225;0.1953125;5.04225;0.7265625;5.04225;0.55078125;5.04225;0.304878056;5.04225;7.926829338;5.04225;1.341463447
0.348206897;-2.43381E-05;0.348206897;-0.001929259;5.049;0.1953125;5.049;0.729980469;5.049;0.55078125;5.049;0.304878056;5.049;7.62195158;5.049;1.463414669
0.348672414;-1.8967E-05;0.348672414;-0.001708873;5.05575;0.193847656;5.05575;0.734375;5.05575;0.550292969;5.05575;0.060975611;5.05575;7.926829338;5.05575;1.585365891
0.349137931;-1.19173E-05;0.349137931;-0.001480934;5.0625;0.194824219;5.0625;0.738769531;5.0625;0.547851563;5.0625;-0.609756112;5.0625;8.231707573;5.0625;1.768292665
0.349603448;-8.56031E-06;0.349603448;-0.001263065;5.06925;0.190917969;5.06925;0.73828125;5.06925;0.549316406;5.06925;-0.792682946;5.06925;8.231707573;5.06925;1.646341443
0.350068966;-8.56031E-06;0.350068966;-0.001053254;5.076;0.191894531;5.076;0.740722656;5.076;0.548828125;5.076;-0.548780501;5.076;8.048780441;5.076;1.829268336
0.350534483;-6.88182E-06;0.350534483;-0.000862242;5.08275;0.19140625;5.08275;0.739257813;5.08275;0.544921875;5.08275;-0.48780489;5.08275;7.98780489;5.08275;1.951219559
0.351;-1.67849E-07;0.351;-0.000751461;5.0895;0.189941406;5.0895;0.740722656;5.0895;0.546875;5.0895;-0.365853667;5.0895;7.560975552;5.0895;2.073170662
0.351465517;8.05676E-06;0.351465517;-0.000794095;5.09625;0.190429688;5.09625;0.741210938;5.09625;0.547363281;5.09625;-0.609756112;5.09625;7.560975552;5.09625;2.073170662
0.351931034;1.37636E-05;0.351931034;-0.000859052;5.103;0.195800781;5.103;0.73828125;5.103;0.543945313;5.103;-0.48780489;5.103;7.256097794;5.103;1.768292665
0.352396552;1.69528E-05;0.352396552;-0.00077966;5.10975;0.199707031;5.10975;0.738769531;5.10975;0.543457031;5.10975;-0.426829278;5.10975;6.707317352;5.10975;1.768292665
0.352862069;1.62814E-05;0.352862069;-0.000601404;5.1165;0.19921875;5.1165;0.741210938;5.1165;0.549804688;5.1165;-0.182926834;5.1165;6.707317352;5.1165;1.768292665
0.353327586;1.17494E-05;0.353327586;-0.000421805;5.12325;0.196289063;5.12325;0.735351563;5.12325;0.555664063;5.12325;0.060975611;5.12325;6.402439117;5.12325;2.073170662
0.353793103;7.38537E-06;0.353793103;-0.000270069;5.13;0.192382813;5.13;0.731445313;5.13;0.5546875;5.13;0.243902445;5.13;6.524390221;5.13;2.256097555
0.354258621;6.88182E-06;0.354258621;-0.000108598;5.13675;0.191894531;5.13675;0.734863281;5.13675;0.555175781;5.13675;0.304878056;5.13675;6.890244007;5.13675;2.5
0.354724138;7.88891E-06;0.354724138;6.22721E-05;5.1435;0.194335938;5.1435;0.740234375;5.1435;0.557617188;5.1435;0.121951222;5.1435;7.682927132;5.1435;2.073170662
0.355189655;7.88891E-06;0.355189655;0.000186984;5.15025;0.199707031;5.15025;0.736816406;5.15025;0.557617188;5.15025;0.121951222;5.15025;7.682927132;5.15025;2.01219511
