X [s];IL: EMG 1 [V];X [s];LON: EMG 2 [V];X [s];ACC: ACC.X 3 [g];X [s];ACC: ACC.Y 3 [g];X [s];ACC: ACC.Z 3 [g];X [s];ACC: GYRO.X 3 [s];X [s];ACC: GYRO.Y 3 [s];X [s];ACC: GYRO.Z 3 [s]
0;0;0;0;0;0;0;0;0;0;0;0;0;0;0;0
0.000465517;0;0.000465517;0;0.00675;0;0.00675;0;0.00675;0;0.00675;0;0.00675;0;0.00675;0
0.000931034;0;0.000931034;0;0.0135;0;0.0135;0;0.0135;0;0.0135;0;0.0135;0;0.0135;0
0.001396552;0;0.001396552;0;0.02025;0;0.02025;0;0.02025;0;0.02025;0;0.02025;0;0.02025;0
0.001862069;0;0.001862069;0;0.027;0;0.027;0;0.027;0;0.027;0;0.027;0;0.027;0
0.002327586;0;0.002327586;0;0.03375;0;0.03375;0;0.03375;0;0.03375;0;0.03375;0;0.03375;0
0.002793103;0;0.002793103;0;0.0405;0;0.0405;0;0.0405;0;0.0405;0;0.0405;0;0.0405;0
0.003258621;0;0.003258621;0;0.04725;0;0.04725;0;0.04725;0;0.04725;0;0.04725;0;0.04725;0
0.003724138;0;0.003724138;0;0.054;0;0.054;0;0.054;0;0.054;0;0.054;0;0.054;0
0.004189655;0;0.004189655;0;0.06075;0;0.06075;0;0.06075;0;0.06075;0;0.06075;0;0.06075;0
0.004655172;0;0.004655172;0;0.0675;0;0.0675;0;0.0675;0;0.0675;0;0.0675;0;0.0675;0
0.00512069;0;0.00512069;0;0.07425;0;0.07425;0;0.07425;0;0.07425;0;0.07425;0;0.07425;0
0.005586207;0;0.005586207;0;0.081;0;0.081;0;0.081;0;0.081;0;0.081;0;0.081;0
0.006051724;0;0.006051724;0;0.08775;0;0.08775;0;0.08775;0;0.08775;0;0.08775;0;0.08775;0
0.006517241;0;0.006517241;0;0.0945;0;0.0945;0;0.0945;0;0.0945;0;0.0945;0;0.0945;0
0.006982759;0;0.006982759;0;0.10125;0;0.10125;0;0.10125;0;0.10125;0;0.10125;0;0.10125;0
0.007448276;0;0.007448276;0;0.108;0;0.108;0;0.108;0;0.108;0;0.108;0;0.108;0
0.007913793;0;0.007913793;0;0.11475;0;0.11475;0;0.11475;0;0.11475;0;0.11475;0;0.11475;0
0.00837931;0;0.00837931;0;0.1215;0.175292969;0.1215;-0.782714844;0.1215;0.591308594;0.1215;-0.853658557;0.1215;-2.560975552;0.1215;3.719512224
0.008844828;0;0.008844828;0;0.12825;0.174804688;0.12825;-0.787597656;0.12825;0.588378906;0.12825;-0.670731723;0.12825;-2.560975552;0.12825;3.963414669
0.009310345;0;0.009310345;0;0.135;0.170898438;0.135;-0.784179688;0.135;0.580566406;0.135;-0.060975611;0.135;-2.560975552;0.135;4.024390221
0.009775862;0;0.009775862;0;0.14175;0.16796875;0.14175;-0.778320313;0.14175;0.57421875;0.14175;0.060975611;0.14175;-2.378048897;0.14175;4.085365772
0.010241379;0;0.010241379;0;0.1485;0.165039063;0.1485;-0.770996094;0.1485;0.56640625;0.1485;0;0.1485;-2.134146452;0.1485;4.024390221
0.010706897;0;0.010706897;0;0.15525;0.168945313;0.15525;-0.764160156;0.15525;0.564941406;0.15525;-0.182926834;0.15525;-2.134146452;0.15525;4.390244007
0.011172414;0;0.011172414;0;0.162;0.170898438;0.162;-0.756835938;0.162;0.567382813;0.162;-0.060975611;0.162;-2.134146452;0.162;4.695122242
0.011637931;0;0.011637931;0;0.16875;0.16796875;0.16875;-0.74609375;0.16875;0.568847656;0.16875;0.121951222;0.16875;-1.890243888;0.16875;4.817073345
0.012103448;0;0.012103448;0;0.1755;0.167480469;0.1755;-0.747558594;0.1755;0.571777344;0.1755;0.48780489;0.1755;-1.524390221;0.1755;5.060975552
0.012568966;0;0.012568966;0;0.18225;0.166992188;0.18225;-0.751464844;0.18225;0.572265625;0.18225;0.792682946;0.18225;-1.036585331;0.18225;4.939024448
0.013034483;0;0.013034483;0;0.189;0.166503906;0.189;-0.749511719;0.189;0.57421875;0.189;1.158536553;0.189;-0.670731723;0.189;4.573170662
0.0135;0;0.0135;0;0.19575;0.166015625;0.19575;-0.745117188;0.19575;0.577148438;0.19575;1.341463447;0.19575;-0.365853667;0.19575;4.390244007
0.013965517;0;0.013965517;0;0.2025;0.170898438;0.2025;-0.735839844;0.2025;0.580078125;0.2025;1.463414669;0.2025;0;0.2025;4.207317352
0.014431034;0;0.014431034;0;0.20925;0.174316406;0.20925;-0.728515625;0.20925;0.583496094;0.20925;1.646341443;0.20925;0.670731723;0.20925;3.902439117
0.014896552;0;0.014896552;0;0.216;0.178222656;0.216;-0.721191406;0.216;0.587890625;0.216;1.585365891;0.216;1.280487776;0.216;3.353658676
0.015362069;0;0.015362069;0;0.22275;0.182617188;0.22275;-0.723144531;0.22275;0.583984375;0.22275;1.341463447;0.22275;1.524390221;0.22275;2.98780489
0.015827586;0;0.015827586;0;0.2295;0.184570313;0.2295;-0.7265625;0.2295;0.583007813;0.2295;0.914634168;0.2295;1.829268336;0.2295;2.560975552
0.016293103;0;0.016293103;0;0.23625;0.18359375;0.23625;-0.730957031;0.23625;0.575683594;0.23625;0.548780501;0.23625;2.195122004;0.23625;1.951219559
0.016758621;0;0.016758621;0;0.243;0.184570313;0.243;-0.728515625;0.243;0.571289063;0.243;0.121951222;0.243;2.134146452;0.243;1.280487776
0.017224138;0;0.017224138;0;0.24975;0.183105469;0.24975;-0.719238281;0.24975;0.565429688;0.24975;-0.182926834;0.24975;2.134146452;0.24975;0.670731723
0.017689655;0;0.017689655;0;0.2565;0.181152344;0.2565;-0.71484375;0.2565;0.565917969;0.2565;-0.121951222;0.2565;2.256097555;0.2565;0.243902445
0.018155172;0;0.018155172;0;0.26325;0.181152344;0.26325;-0.716796875;0.26325;0.564941406;0.26325;-0.304878056;0.26325;2.134146452;0.26325;0
0.01862069;0;0.01862069;0;0.27;0.179199219;0.27;-0.71484375;0.27;0.564453125;0.27;-0.548780501;0.27;2.378048897;0.27;-0.609756112
0.019086207;0;0.019086207;0;0.27675;0.18359375;0.27675;-0.718261719;0.27675;0.564453125;0.27675;-0.914634168;0.27675;2.926829338;0.27675;-0.853658557
0.019551724;0;0.019551724;0;0.2835;0.187011719;0.2835;-0.725585938;0.2835;0.565917969;0.2835;-1.036585331;0.2835;3.536585331;0.2835;-1.524390221
0.020017241;0;0.020017241;0;0.29025;0.192382813;0.29025;-0.727539063;0.29025;0.565917969;0.29025;-0.792682946;0.29025;3.658536673;0.29025;-2.073170662
0.020482759;0;0.020482759;0;0.297;0.196777344;0.297;-0.729492188;0.297;0.570800781;0.297;-0.853658557;0.297;3.963414669;0.297;-3.170731783
0.020948276;0;0.020948276;0;0.30375;0.203125;0.30375;-0.721679688;0.30375;0.578125;0.30375;-0.365853667;0.30375;4.329268456;0.30375;-4.207317352
0.021413793;0;0.021413793;0;0.3105;0.203125;0.3105;-0.7109375;0.3105;0.588378906;0.3105;-0.121951222;0.3105;4.390244007;0.3105;-4.817073345
0.02187931;0;0.02187931;0;0.31725;0.202636719;0.31725;-0.709960938;0.31725;0.599121094;0.31725;-0.304878056;0.31725;4.390244007;0.31725;-5.182927132
0.022344828;0;0.022344828;0;0.324;0.201171875;0.324;-0.719238281;0.324;0.60546875;0.324;-0.792682946;0.324;4.573170662;0.324;-5.060975552
0.022810345;0;0.022810345;0;0.33075;0.197265625;0.33075;-0.745117188;0.33075;0.609375;0.33075;-1.463414669;0.33075;4.634146214;0.33075;-5.060975552
0.023275862;0;0.023275862;0;0.3375;0.196777344;0.3375;-0.756347656;0.3375;0.608398438;0.3375;-1.768292665;0.3375;4.878048897;0.3375;-5.060975552
0.023741379;0;0.023741379;0;0.34425;0.193847656;0.34425;-0.775390625;0.34425;0.603515625;0.34425;-1.707317114;0.34425;4.939024448;0.34425;-5.243902683
0.024206897;0;0.024206897;0;0.351;0.185058594;0.351;-0.781738281;0.351;0.595214844;0.351;-1.585365891;0.351;5.060975552;0.351;-5.182927132
0.024672414;0;0.024672414;0;0.35775;0.181152344;0.35775;-0.76953125;0.35775;0.590332031;0.35775;-1.097561002;0.35775;5.304878235;0.35775;-5.48780489
0.025137931;0;0.025137931;0;0.3645;0.172363281;0.3645;-0.743652344;0.3645;0.588378906;0.3645;-0.792682946;0.3645;5.609755993;0.3645;-5.548780441
0.025603448;0;0.025603448;0;0.37125;0.171875;0.37125;-0.721679688;0.37125;0.589355469;0.37125;-0.792682946;0.37125;5.792683125;0.37125;-5.121951103
0.026068966;0;0.026068966;0;0.378;0.173339844;0.378;-0.707519531;0.378;0.587402344;0.378;-1.402438998;0.378;5.853658676;0.378;-4.451219559
0.026534483;0;0.026534483;0;0.38475;0.17578125;0.38475;-0.705078125;0.38475;0.58203125;0.38475;-2.317073107;0.38475;6.280488014;0.38475;-3.719512224
0.027;0;0.027;0;0.3915;0.181640625;0.3915;-0.715820313;0.3915;0.578125;0.3915;-2.743902445;0.3915;6.341463566;0.3915;-3.292682886
0.027465517;0;0.027465517;0;0.39825;0.182128906;0.39825;-0.733886719;0.39825;0.573242188;0.39825;-3.048780441;0.39825;6.646341801;0.39825;-3.231707335
0.027931034;0;0.027931034;0;0.405;0.184082031;0.405;-0.741699219;0.405;0.565429688;0.405;-3.414634228;0.405;6.890244007;0.405;-3.231707335
0.028396552;0;0.028396552;0;0.41175;0.185546875;0.41175;-0.748046875;0.41175;0.566894531;0.41175;-3.536585331;0.41175;7.195122242;0.41175;-2.98780489
0.028862069;0;0.028862069;0;0.4185;0.181640625;0.4185;-0.752929688;0.4185;0.571777344;0.4185;-3.597561121;0.4185;7.317073345;0.4185;-3.170731783
0.029327586;0;0.029327586;0;0.42525;0.181152344;0.42525;-0.757324219;0.42525;0.585449219;0.42525;-3.536585331;0.42525;7.743902683;0.42525;-2.865853786
0.029793103;0;0.029793103;0;0.432;0.186523438;0.432;-0.76953125;0.432;0.588378906;0.432;-3.414634228;0.432;7.98780489;0.432;-2.5
0.030258621;0;0.030258621;0;0.43875;0.184570313;0.43875;-0.778808594;0.43875;0.583984375;0.43875;-3.414634228;0.43875;8.414634705;0.43875;-1.951219559
0.030724138;0;0.030724138;0;0.4455;0.181152344;0.4455;-0.787597656;0.4455;0.57421875;0.4455;-3.780487776;0.4455;8.536585808;0.4455;-1.280487776
0.031189655;0;0.031189655;0;0.45225;0.176757813;0.45225;-0.787109375;0.45225;0.566894531;0.45225;-3.780487776;0.45225;8.780488014;0.45225;-1.280487776
0.031655172;0;0.031655172;0;0.459;0.171386719;0.459;-0.783203125;0.459;0.5625;0.459;-3.475609779;0.459;8.902439117;0.459;-1.219512224
0.03212069;0;0.03212069;0;0.46575;0.1640625;0.46575;-0.774902344;0.46575;0.562988281;0.46575;-2.804877996;0.46575;9.329268456;0.46575;-1.219512224
0.032586207;0;0.032586207;0;0.4725;0.16015625;0.4725;-0.768554688;0.4725;0.558105469;0.4725;-2.5;0.4725;9.573170662;0.4725;-1.219512224
0.033051724;0;0.033051724;0;0.47925;0.157714844;0.47925;-0.762695313;0.47925;0.556152344;0.47925;-2.378048897;0.47925;9.512195587;0.47925;-1.036585331
0.033517241;0;0.033517241;0;0.486;0.155761719;0.486;-0.762695313;0.486;0.557617188;0.486;-2.560975552;0.486;9.390244484;0.486;-0.609756112
0.033982759;0;0.033982759;0;0.49275;0.156738281;0.49275;-0.760742188;0.49275;0.557617188;0.49275;-2.439024448;0.49275;9.512195587;0.49275;-0.548780501
0.034448276;0;0.034448276;0;0.4995;0.16015625;0.4995;-0.772460938;0.4995;0.557128906;0.4995;-1.585365891;0.4995;9.451219559;0.4995;-0.48780489
0.034913793;0;0.034913793;0;0.50625;0.156738281;0.50625;-0.778320313;0.50625;0.555664063;0.50625;-0.914634168;0.50625;9.512195587;0.50625;-0.670731723
0.03537931;0;0.03537931;0;0.513;0.157714844;0.513;-0.779785156;0.513;0.559570313;0.513;-0.243902445;0.513;9.268292427;0.513;-0.731707335
0.035844828;0;0.035844828;0;0.51975;0.162109375;0.51975;-0.776367188;0.51975;0.564941406;0.51975;0.548780501;0.51975;9.146341324;0.51975;-0.914634168
0.036310345;0;0.036310345;0;0.5265;0.163574219;0.5265;-0.771972656;0.5265;0.572753906;0.5265;1.158536553;0.5265;8.902439117;0.5265;-0.975609779
0.036775862;0;0.036775862;0;0.53325;0.163085938;0.53325;-0.767089844;0.53325;0.578125;0.53325;1.585365891;0.53325;8.597560883;0.53325;-1.219512224
0.037241379;0;0.037241379;0;0.54;0.170898438;0.54;-0.767089844;0.54;0.580078125;0.54;1.951219559;0.54;8.475609779;0.54;-1.097561002
0.037706897;0;0.037706897;0;0.54675;0.170898438;0.54675;-0.764648438;0.54675;0.581542969;0.54675;1.768292665;0.54675;8.353658676;0.54675;-0.731707335
0.038172414;0;0.038172414;0;0.5535;0.170410156;0.5535;-0.766113281;0.5535;0.577636719;0.5535;1.585365891;0.5535;7.926829338;0.5535;-0.182926834
0.038637931;0;0.038637931;0;0.56025;0.170410156;0.56025;-0.769042969;0.56025;0.575195313;0.56025;1.524390221;0.56025;7.926829338;0.56025;0.182926834
0.039103448;0;0.039103448;0;0.567;0.164550781;0.567;-0.769042969;0.567;0.574707031;0.567;1.707317114;0.567;8.170731544;0.567;0.243902445
0.039568966;0;0.039568966;0;0.57375;0.166015625;0.57375;-0.763671875;0.57375;0.57421875;0.57375;1.768292665;0.57375;8.292682648;0.57375;0
0.040034483;0;0.040034483;0;0.5805;0.169433594;0.5805;-0.762207031;0.5805;0.572753906;0.5805;1.829268336;0.5805;8.353658676;0.5805;-0.365853667
0.0405;0;0.0405;0;0.58725;0.166015625;0.58725;-0.759765625;0.58725;0.572753906;0.58725;1.890243888;0.58725;8.658536911;0.58725;-0.48780489
0.040965517;0;0.040965517;0;0.594;0.166015625;0.594;-0.770019531;0.594;0.573242188;0.594;2.073170662;0.594;9.024390221;0.594;-0.548780501
0.041431034;0;0.041431034;0;0.60075;0.169921875;0.60075;-0.774902344;0.60075;0.569824219;0.60075;2.073170662;0.60075;9.024390221;0.60075;-0.365853667
0.041896552;0;0.041896552;0;0.6075;0.171386719;0.6075;-0.778320313;0.6075;0.568847656;0.6075;2.378048897;0.6075;8.902439117;0.6075;-0.304878056
0.042362069;0;0.042362069;0;0.61425;0.169433594;0.61425;-0.778808594;0.61425;0.568359375;0.61425;3.170731783;0.61425;8.841464043;0.61425;-0.182926834
0.042827586;0;0.042827586;0;0.621;0.165039063;0.621;-0.775878906;0.621;0.562988281;0.621;3.841463566;0.621;8.902439117;0.621;-0.48780489
0.043293103;0;0.043293103;0;0.62775;0.163085938;0.62775;-0.762695313;0.62775;0.564941406;0.62775;4.024390221;0.62775;9.451219559;0.62775;-0.731707335
0.043758621;0;0.043758621;0;0.6345;0.165527344;0.6345;-0.758300781;0.6345;0.565917969;0.6345;4.573170662;0.6345;10.06097603;0.6345;-0.975609779
0.044224138;0;0.044224138;0;0.64125;0.170410156;0.64125;-0.758789063;0.64125;0.567382813;0.64125;4.817073345;0.64125;10.30487823;0.64125;-1.219512224
0.044689655;0;0.044689655;0;0.648;0.173339844;0.648;-0.759765625;0.648;0.564941406;0.648;4.939024448;0.648;10.42682934;0.648;-1.585365891
0.045155172;0;0.045155172;0;0.65475;0.177246094;0.65475;-0.763183594;0.65475;0.563964844;0.65475;4.634146214;0.65475;10.42682934;0.65475;-1.585365891
0.04562069;0;0.04562069;0;0.6615;0.177734375;0.6615;-0.775390625;0.6615;0.565917969;0.6615;4.756097794;0.6615;10.30487823;0.6615;-1.402438998
0.046086207;0;0.046086207;0;0.66825;0.176269531;0.66825;-0.77734375;0.66825;0.571289063;0.66825;5.304878235;0.66825;9.817073822;0.66825;-1.158536553
0.046551724;0;0.046551724;0;0.675;0.170898438;0.675;-0.775390625;0.675;0.572265625;0.675;5.792683125;0.675;9.451219559;0.675;-0.731707335
0.047017241;0;0.047017241;0;0.68175;0.164550781;0.68175;-0.770019531;0.68175;0.577148438;0.68175;6.219512463;0.68175;9.146341324;0.68175;-0.060975611
0.047482759;0;0.047482759;0;0.6885;0.159179688;0.6885;-0.766601563;0.6885;0.580566406;0.6885;6.951219559;0.6885;8.719511986;0.6885;0.548780501
0.047948276;0;0.047948276;0;0.69525;0.15625;0.69525;-0.755371094;0.69525;0.580078125;0.69525;7.195122242;0.69525;8.719511986;0.69525;1.280487776
0.048413793;0;0.048413793;0;0.702;0.153320313;0.702;-0.752441406;0.702;0.579589844;0.702;7.560975552;0.702;8.719511986;0.702;2.073170662
0.04887931;0;0.04887931;0;0.70875;0.15234375;0.70875;-0.753417969;0.70875;0.580566406;0.70875;7.62195158;0.70875;9.024390221;0.70875;2.5
0.049344828;0;0.049344828;0;0.7155;0.155761719;0.7155;-0.750976563;0.7155;0.58203125;0.7155;7.804878235;0.7155;9.207317352;0.7155;2.621951342
0.049810345;0;0.049810345;0;0.72225;0.156738281;0.72225;-0.747070313;0.72225;0.584960938;0.72225;7.926829338;0.72225;9.146341324;0.72225;2.98780489
0.050275862;0;0.050275862;0;0.729;0.155761719;0.729;-0.744628906;0.729;0.587402344;0.729;7.682927132;0.729;9.329268456;0.729;3.292682886
0.050741379;0;0.050741379;0;0.73575;0.157226563;0.73575;-0.7421875;0.73575;0.587402344;0.73575;7.073170662;0.73575;9.695121765;0.73575;3.719512224
0.051206897;0;0.051206897;0;0.7425;0.149414063;0.7425;-0.737792969;0.7425;0.588867188;0.7425;6.463414669;0.7425;10.1219511;0.7425;3.902439117
0.051672414;0;0.051672414;0;0.74925;0.149902344;0.74925;-0.73828125;0.74925;0.587402344;0.74925;5.853658676;0.74925;10.54878044;0.74925;4.085365772
0.052137931;0;0.052137931;0;0.756;0.150878906;0.756;-0.737304688;0.756;0.58984375;0.756;5.121951103;0.756;10.85365868;0.756;4.51219511
0.052603448;0;0.052603448;0;0.76275;0.153808594;0.76275;-0.733398438;0.76275;0.592285156;0.76275;4.573170662;0.76275;10.9146347;0.76275;4.451219559
0.053068966;0;0.053068966;0;0.7695;0.149414063;0.7695;-0.732910156;0.7695;0.598632813;0.7695;4.329268456;0.7695;10.7926836;0.7695;4.634146214
0.053534483;0;0.053534483;0;0.77625;0.151367188;0.77625;-0.736328125;0.77625;0.6015625;0.77625;4.207317352;0.77625;10.85365868;0.77625;5.182927132
0.054;0;0.054;0;0.783;0.146972656;0.783;-0.740234375;0.783;0.6015625;0.783;3.963414669;0.783;10.85365868;0.783;5.670732021
0.054465517;0;0.054465517;0;0.78975;0.145996094;0.78975;-0.745605469;0.78975;0.610839844;0.78975;3.902439117;0.78975;10.9146347;0.78975;6.158536911
0.054931034;0;0.054931034;0;0.7965;0.142578125;0.7965;-0.754882813;0.7965;0.608398438;0.7965;3.963414669;0.7965;10.48780537;0.7965;6.646341801
0.055396552;0;0.055396552;0;0.80325;0.138671875;0.80325;-0.759765625;0.80325;0.60546875;0.80325;4.268292904;0.80325;10.06097603;0.80325;6.951219559
0.055862069;0;0.055862069;0;0.81;0.133789063;0.81;-0.763183594;0.81;0.605957031;0.81;4.939024448;0.81;9.939024925;0.81;6.890244007
0.056327586;0;0.056327586;0;0.81675;0.126464844;0.81675;-0.764648438;0.81675;0.604492188;0.81675;5.426829338;0.81675;10.30487823;0.81675;6.951219559
0.056793103;0;0.056793103;0;0.8235;0.116699219;0.8235;-0.756347656;0.8235;0.60546875;0.8235;5.670732021;0.8235;10.42682934;0.8235;7.13414669
0.057258621;0;0.057258621;0;0.83025;0.106933594;0.83025;-0.747070313;0.83025;0.608398438;0.83025;5.975609779;0.83025;10.85365868;0.83025;7.256097794
0.057724138;0;0.057724138;0;0.837;0.104003906;0.837;-0.739746094;0.837;0.610839844;0.837;5.731707573;0.837;11.52439022;0.837;7.195122242
0.058189655;0;0.058189655;0;0.84375;0.098144531;0.84375;-0.735839844;0.84375;0.612792969;0.84375;5.426829338;0.84375;12.01219559;0.84375;7.195122242
0.058655172;0;0.058655172;0;0.8505;0.093261719;0.8505;-0.736816406;0.8505;0.614746094;0.8505;4.939024448;0.8505;12.56097603;0.8505;7.13414669
0.05912069;0;0.05912069;0;0.85725;0.091796875;0.85725;-0.735839844;0.85725;0.609375;0.85725;4.329268456;0.85725;12.86585426;0.85725;6.707317352
0.059586207;0;0.059586207;0;0.864;0.092285156;0.864;-0.737792969;0.864;0.612304688;0.864;4.451219559;0.864;12.98780537;0.864;6.280488014
0.060051724;0;0.060051724;0;0.87075;0.092773438;0.87075;-0.740722656;0.87075;0.616210938;0.87075;4.756097794;0.87075;13.10975647;0.87075;5.609755993
0.060517241;0;0.060517241;0;0.8775;0.091308594;0.8775;-0.741210938;0.8775;0.614746094;0.8775;5;0.8775;13.10975647;0.8775;5.365853786
0.060982759;0;0.060982759;0;0.88425;0.085449219;0.88425;-0.736816406;0.88425;0.614257813;0.88425;4.939024448;0.88425;12.92682934;0.88425;5.548780441
0.061448276;0;0.061448276;0;0.891;0.082519531;0.891;-0.736328125;0.891;0.615234375;0.891;4.878048897;0.891;12.5;0.891;5.914634228
0.061913793;0;0.061913793;0;0.89775;0.078125;0.89775;-0.728027344;0.89775;0.6171875;0.89775;5.48780489;0.89775;12.25609779;0.89775;6.158536911
0.06237931;0;0.06237931;0;0.9045;0.073730469;0.9045;-0.720214844;0.9045;0.620117188;0.9045;5.853658676;0.9045;11.76829338;0.9045;6.036585331
0.062844828;0;0.062844828;0;0.91125;0.068359375;0.91125;-0.717773438;0.91125;0.622070313;0.91125;5.914634228;0.91125;11.70731735;0.91125;5.914634228
0.063310345;0;0.063310345;0;0.918;0.0703125;0.918;-0.720214844;0.918;0.618164063;0.918;5.670732021;0.918;11.58536625;0.918;5.914634228
0.063775862;0;0.063775862;0;0.92475;0.071289063;0.92475;-0.723144531;0.92475;0.621582031;0.92475;5.365853786;0.92475;11.34146404;0.92475;5.731707573
0.064241379;0;0.064241379;0;0.9315;0.073730469;0.9315;-0.723144531;0.9315;0.621582031;0.9315;5.182927132;0.9315;11.03658581;0.9315;5.609755993
0.064706897;0;0.064706897;0;0.93825;0.073730469;0.93825;-0.725097656;0.93825;0.622070313;0.93825;5.182927132;0.93825;10.73170757;0.93825;5.548780441
0.065172414;0;0.065172414;0;0.945;0.068359375;0.945;-0.724121094;0.945;0.623046875;0.945;4.817073345;0.945;10.36585426;0.945;5.548780441
0.065637931;0;0.065637931;0;0.95175;0.071777344;0.95175;-0.720214844;0.95175;0.623535156;0.95175;4.634146214;0.95175;10.06097603;0.95175;5.609755993
0.066103448;0;0.066103448;0;0.9585;0.069335938;0.9585;-0.715820313;0.9585;0.625;0.9585;4.268292904;0.9585;10;0.9585;5.365853786
0.066568966;0;0.066568966;0;0.96525;0.0703125;0.96525;-0.715332031;0.96525;0.627441406;0.96525;4.024390221;0.96525;9.878048897;0.96525;5.426829338
0.067034483;0;0.067034483;0;0.972;0.072753906;0.972;-0.715820313;0.972;0.624511719;0.972;3.597561121;0.972;9.695121765;0.972;5
0.0675;0;0.0675;0;0.97875;0.072265625;0.97875;-0.713867188;0.97875;0.622558594;0.97875;3.353658676;0.97875;9.512195587;0.97875;4.695122242
0.067965517;0;0.067965517;0;0.9855;0.073730469;0.9855;-0.710449219;0.9855;0.616210938;0.9855;2.865853786;0.9855;9.573170662;0.9855;4.756097794
0.068431034;0;0.068431034;0;0.99225;0.072753906;0.99225;-0.708007813;0.99225;0.614746094;0.99225;2.439024448;0.99225;9.451219559;0.99225;4.634146214
0.068896552;0;0.068896552;0;0.999;0.074707031;0.999;-0.708984375;0.999;0.61328125;0.999;2.256097555;0.999;9.268292427;0.999;4.573170662
0.069362069;0;0.069362069;0;1.00575;0.074707031;1.00575;-0.710449219;1.00575;0.610839844;1.00575;1.768292665;1.00575;8.963415146;1.00575;4.695122242
0.069827586;0;0.069827586;0;1.0125;0.071289063;1.0125;-0.713867188;1.0125;0.60546875;1.0125;1.585365891;1.0125;8.902439117;1.0125;4.51219511
0.070293103;0;0.070293103;0;1.01925;0.070800781;1.01925;-0.717773438;1.01925;0.603515625;1.01925;1.463414669;1.01925;8.597560883;1.01925;4.390244007
0.070758621;0;0.070758621;0;1.026;0.0703125;1.026;-0.72265625;1.026;0.60546875;1.026;1.036585331;1.026;8.414634705;1.026;4.207317352
0.071224138;0;0.071224138;0;1.03275;0.073242188;1.03275;-0.726074219;1.03275;0.607421875;1.03275;1.280487776;1.03275;8.231707573;1.03275;4.146341324
0.071689655;0;0.071689655;0;1.0395;0.069824219;1.0395;-0.734375;1.0395;0.60546875;1.0395;1.097561002;1.0395;8.10975647;1.0395;3.963414669
0.072155172;0;0.072155172;0;1.04625;0.067871094;1.04625;-0.733398438;1.04625;0.602539063;1.04625;1.097561002;1.04625;7.865853786;1.04625;3.597561121
0.07262069;0;0.07262069;0;1.053;0.0703125;1.053;-0.730957031;1.053;0.606445313;1.053;1.219512224;1.053;7.682927132;1.053;3.353658676
0.073086207;0;0.073086207;0;1.05975;0.0703125;1.05975;-0.729980469;1.05975;0.609863281;1.05975;1.341463447;1.05975;7.62195158;1.05975;3.048780441
0.073551724;0;0.073551724;0;1.0665;0.068847656;1.0665;-0.728515625;1.0665;0.609375;1.0665;1.463414669;1.0665;7.5;1.0665;2.865853786
0.074017241;0;0.074017241;0;1.07325;0.065917969;1.07325;-0.725097656;1.07325;0.608886719;1.07325;1.402438998;1.07325;7.195122242;1.07325;2.865853786
0.074482759;0;0.074482759;0;1.08;0.065917969;1.08;-0.721679688;1.08;0.608398438;1.08;1.341463447;1.08;7.317073345;1.08;3.048780441
0.074948276;0;0.074948276;0;1.08675;0.06640625;1.08675;-0.721191406;1.08675;0.605957031;1.08675;1.280487776;1.08675;7.378048897;1.08675;3.109756231
0.075413793;0;0.075413793;0;1.0935;0.067382813;1.0935;-0.714355469;1.0935;0.604980469;1.0935;1.097561002;1.0935;7.195122242;1.0935;2.98780489
0.07587931;0;0.07587931;0;1.10025;0.065429688;1.10025;-0.707519531;1.10025;0.604492188;1.10025;1.219512224;1.10025;7.073170662;1.10025;2.98780489
0.076344828;0;0.076344828;0;1.107;0.063476563;1.107;-0.704101563;1.107;0.604003906;1.107;1.036585331;1.107;6.890244007;1.107;3.231707335
0.076810345;0;0.076810345;0;1.11375;0.064941406;1.11375;-0.697265625;1.11375;0.603027344;1.11375;0.426829278;1.11375;6.524390221;1.11375;3.353658676
0.077275862;0;0.077275862;0;1.1205;0.066894531;1.1205;-0.696777344;1.1205;0.6015625;1.1205;-0.182926834;1.1205;6.402439117;1.1205;3.597561121
0.077741379;0;0.077741379;0;1.12725;0.068847656;1.12725;-0.702636719;1.12725;0.606445313;1.12725;-0.670731723;1.12725;6.097560883;1.12725;4.085365772
0.078206897;0;0.078206897;0;1.134;0.068847656;1.134;-0.711425781;1.134;0.609863281;1.134;-0.731707335;1.134;5.853658676;1.134;4.451219559
0.078672414;0;0.078672414;0;1.14075;0.063964844;1.14075;-0.71875;1.14075;0.611816406;1.14075;-0.914634168;1.14075;5.670732021;1.14075;4.51219511
0.079137931;0;0.079137931;0;1.1475;0.064453125;1.1475;-0.728027344;1.1475;0.608398438;1.1475;-1.341463447;1.1475;5.609755993;1.1475;4.756097794
0.079603448;0;0.079603448;0;1.15425;0.062988281;1.15425;-0.735839844;1.15425;0.610839844;1.15425;-1.524390221;1.15425;5.609755993;1.15425;4.878048897
0.080068966;0;0.080068966;0;1.161;0.064453125;1.161;-0.747558594;1.161;0.6171875;1.161;-1.341463447;1.161;5.48780489;1.161;4.817073345
0.080534483;0;0.080534483;0;1.16775;0.064941406;1.16775;-0.75390625;1.16775;0.622070313;1.16775;-1.036585331;1.16775;5.365853786;1.16775;4.695122242
0.081;0;0.081;0;1.1745;0.073242188;1.1745;-0.75390625;1.1745;0.624023438;1.1745;-0.609756112;1.1745;5.182927132;1.1745;4.695122242
0.081465517;0;0.081465517;0;1.18125;0.077148438;1.18125;-0.751464844;1.18125;0.629394531;1.18125;-0.243902445;1.18125;5.121951103;1.18125;4.51219511
0.081931034;0;0.081931034;0;1.188;0.080566406;1.188;-0.748046875;1.188;0.634277344;1.188;0.060975611;1.188;5.182927132;1.188;4.329268456
0.082396552;0;0.082396552;0;1.19475;0.087402344;1.19475;-0.739257813;1.19475;0.631347656;1.19475;0.548780501;1.19475;5.182927132;1.19475;3.963414669
0.082862069;0;0.082862069;0;1.2015;0.089355469;1.2015;-0.731933594;1.2015;0.62890625;1.2015;0.304878056;1.2015;4.817073345;1.2015;3.902439117
0.083327586;0;0.083327586;0;1.20825;0.089355469;1.20825;-0.724609375;1.20825;0.627441406;1.20825;-0.304878056;1.20825;4.268292904;1.20825;3.597561121
0.083793103;0;0.083793103;0;1.215;0.092285156;1.215;-0.717773438;1.215;0.626464844;1.215;-0.426829278;1.215;4.085365772;1.215;3.292682886
0.084258621;0;0.084258621;0;1.22175;0.091308594;1.22175;-0.715332031;1.22175;0.620117188;1.22175;-0.731707335;1.22175;3.963414669;1.22175;2.98780489
0.084724138;0;0.084724138;0;1.2285;0.096191406;1.2285;-0.716308594;1.2285;0.619628906;1.2285;-1.158536553;1.2285;3.841463566;1.2285;2.560975552
0.085189655;0;0.085189655;0;1.23525;0.09765625;1.23525;-0.715332031;1.23525;0.622070313;1.23525;-1.463414669;1.23525;3.780487776;1.23525;2.317073107
0.085655172;0;0.085655172;0;1.242;0.102539063;1.242;-0.723632813;1.242;0.624023438;1.242;-1.951219559;1.242;3.597561121;1.242;2.01219511
0.08612069;0;0.08612069;0;1.24875;0.112792969;1.24875;-0.739257813;1.24875;0.625488281;1.24875;-2.134146452;1.24875;3.231707335;1.24875;1.707317114
0.086586207;0;0.086586207;0;1.2555;0.117675781;1.2555;-0.754394531;1.2555;0.625976563;1.2555;-2.256097555;1.2555;2.621951342;1.2555;1.585365891
0.087051724;0;0.087051724;0;1.26225;0.12109375;1.26225;-0.765625;1.26225;0.625;1.26225;-2.134146452;1.26225;1.951219559;1.26225;1.585365891
0.087517241;0;0.087517241;0;1.269;0.118164063;1.269;-0.770507813;1.269;0.619140625;1.269;-2.01219511;1.269;1.219512224;1.269;1.463414669
0.087982759;0;0.087982759;0;1.27575;0.114746094;1.27575;-0.768066406;1.27575;0.614746094;1.27575;-1.890243888;1.27575;0.670731723;1.27575;1.158536553
0.088448276;0;0.088448276;0;1.2825;0.11328125;1.2825;-0.752929688;1.2825;0.614746094;1.2825;-1.341463447;1.2825;0.853658557;1.2825;0.853658557
0.088913793;0;0.088913793;0;1.28925;0.112792969;1.28925;-0.734863281;1.28925;0.613769531;1.28925;-1.036585331;1.28925;1.097561002;1.28925;0.548780501
0.08937931;0;0.08937931;0;1.296;0.118652344;1.296;-0.72265625;1.296;0.610839844;1.296;-1.036585331;1.296;1.707317114;1.296;0.48780489
0.089844828;0;0.089844828;0;1.30275;0.121582031;1.30275;-0.722167969;1.30275;0.609375;1.30275;-1.402438998;1.30275;2.256097555;1.30275;0.426829278
0.090310345;0;0.090310345;0;1.3095;0.125976563;1.3095;-0.71875;1.3095;0.601074219;1.3095;-1.463414669;1.3095;2.5;1.3095;0.243902445
0.090775862;0;0.090775862;0;1.31625;0.13671875;1.31625;-0.72265625;1.31625;0.597167969;1.31625;-2.195122004;1.31625;2.865853786;1.31625;0.121951222
0.091241379;0;0.091241379;0;1.323;0.14453125;1.323;-0.729003906;1.323;0.59765625;1.323;-2.743902445;1.323;3.231707335;1.323;0.182926834
0.091706897;0;0.091706897;0;1.32975;0.143066406;1.32975;-0.733886719;1.32975;0.599121094;1.32975;-2.743902445;1.32975;3.597561121;1.32975;0.426829278
0.092172414;0;0.092172414;0;1.3365;0.141113281;1.3365;-0.735351563;1.3365;0.599121094;1.3365;-2.560975552;1.3365;3.780487776;1.3365;0.426829278
0.092637931;0;0.092637931;0;1.34325;0.135742188;1.34325;-0.735351563;1.34325;0.598144531;1.34325;-2.621951342;1.34325;4.085365772;1.34325;0.365853667
0.093103448;0;0.093103448;0;1.35;0.138183594;1.35;-0.733398438;1.35;0.600585938;1.35;-2.865853786;1.35;4.390244007;1.35;0.304878056
0.093568966;0;0.093568966;0;1.35675;0.136230469;1.35675;-0.732910156;1.35675;0.604003906;1.35675;-2.865853786;1.35675;4.695122242;1.35675;0.060975611
0.094034483;0;0.094034483;0;1.3635;0.139648438;1.3635;-0.732910156;1.3635;0.602539063;1.3635;-2.804877996;1.3635;5;1.3635;0.060975611
0.0945;0;0.0945;-9.56741E-06;1.37025;0.135742188;1.37025;-0.733398438;1.37025;0.595703125;1.37025;-2.621951342;1.37025;5.48780489;1.37025;0.426829278
0.094965517;0;0.094965517;-3.86053E-06;1.377;0.135253906;1.377;-0.734375;1.377;0.59375;1.377;-2.926829338;1.377;5.48780489;1.377;0.48780489
0.095431034;0;0.095431034;-2.85344E-06;1.38375;0.136230469;1.38375;-0.739746094;1.38375;0.595214844;1.38375;-3.109756231;1.38375;5.609755993;1.38375;0.670731723
0.095896552;0;0.095896552;-1.0071E-06;1.3905;0.136230469;1.3905;-0.744140625;1.3905;0.598144531;1.3905;-3.109756231;1.3905;5.609755993;1.3905;0.670731723
0.096362069;0;0.096362069;-8.39246E-07;1.39725;0.13671875;1.39725;-0.745605469;1.39725;0.600097656;1.39725;-2.804877996;1.39725;5.914634228;1.39725;0.48780489
0.096827586;0;0.096827586;-2.85344E-06;1.404;0.139160156;1.404;-0.747070313;1.404;0.596191406;1.404;-2.5;1.404;6.402439117;1.404;0.426829278
0.097293103;0;0.097293103;-3.02129E-06;1.41075;0.138671875;1.41075;-0.751464844;1.41075;0.594726563;1.41075;-2.439024448;1.41075;6.524390221;1.41075;0.426829278
0.097758621;0;0.097758621;-1.51064E-06;1.4175;0.137207031;1.4175;-0.751953125;1.4175;0.593261719;1.4175;-2.256097555;1.4175;6.768292904;1.4175;0.853658557
0.098224138;0;0.098224138;-1.67849E-07;1.42425;0.139160156;1.42425;-0.755859375;1.42425;0.592285156;1.42425;-1.707317114;1.42425;6.890244007;1.42425;0.731707335
0.098689655;0;0.098689655;1.67849E-07;1.431;0.134765625;1.431;-0.755371094;1.431;0.591308594;1.431;-1.463414669;1.431;7.560975552;1.431;0.731707335
0.099155172;0;0.099155172;5.03548E-07;1.43775;0.135253906;1.43775;-0.75390625;1.43775;0.594238281;1.43775;-1.036585331;1.43775;8.10975647;1.43775;0.426829278
0.09962069;0;0.09962069;1.17494E-06;1.4445;0.135253906;1.4445;-0.752929688;1.4445;0.597167969;1.4445;-0.670731723;1.4445;8.597560883;1.4445;0.243902445
0.100086207;0;0.100086207;8.39246E-07;1.45125;0.137695313;1.45125;-0.755371094;1.45125;0.595214844;1.45125;-0.792682946;1.45125;8.902439117;1.45125;-0.060975611
0.100551724;0;0.100551724;5.03548E-07;1.458;0.140136719;1.458;-0.752929688;1.458;0.59765625;1.458;-0.914634168;1.458;9.085366249;1.458;-0.121951222
0.101017241;0;0.101017241;1.17494E-06;1.46475;0.138671875;1.46475;-0.752929688;1.46475;0.593261719;1.46475;-1.158536553;1.46475;9.512195587;1.46475;-0.426829278
0.101482759;0;0.101482759;1.67849E-06;1.4715;0.142089844;1.4715;-0.747558594;1.4715;0.594726563;1.4715;-1.097561002;1.4715;9.512195587;1.4715;-0.548780501
0.101948276;0;0.101948276;1.84634E-06;1.47825;0.137695313;1.47825;-0.748046875;1.47825;0.596679688;1.47825;-1.097561002;1.47825;9.512195587;1.47825;-0.731707335
0.102413793;0;0.102413793;1.51064E-06;1.485;0.138671875;1.485;-0.742675781;1.485;0.592773438;1.485;-1.097561002;1.485;9.63414669;1.485;-0.670731723
0.10287931;0;0.10287931;8.39246E-07;1.49175;0.133300781;1.49175;-0.744140625;1.49175;0.595214844;1.49175;-1.219512224;1.49175;10;1.49175;-0.48780489
0.103344828;0;0.103344828;2.51774E-06;1.4985;0.131835938;1.4985;-0.745605469;1.4985;0.593261719;1.4985;-1.463414669;1.4985;10.30487823;1.4985;-0.670731723
0.103810345;0;0.103810345;4.53193E-06;1.50525;0.132324219;1.50525;-0.749023438;1.50525;0.590820313;1.50525;-1.646341443;1.50525;10.60975647;1.50525;-0.670731723
0.104275862;0;0.104275862;5.53903E-06;1.512;0.133789063;1.512;-0.752441406;1.512;0.590820313;1.512;-1.402438998;1.512;11.03658581;1.512;-0.731707335
0.104741379;0;0.104741379;4.86763E-06;1.51875;0.130371094;1.51875;-0.755859375;1.51875;0.586914063;1.51875;-1.280487776;1.51875;11.21951199;1.51875;-0.853658557
0.105206897;0;0.105206897;5.20333E-06;1.5255;0.129394531;1.5255;-0.751953125;1.5255;0.588378906;1.5255;-1.036585331;1.5255;11.64634132;1.5255;-0.670731723
0.105672414;0;0.105672414;6.88182E-06;1.53225;0.1328125;1.53225;-0.754394531;1.53225;0.585449219;1.53225;-1.036585331;1.53225;11.70731735;1.53225;-0.731707335
0.106137931;0;0.106137931;7.21752E-06;1.539;0.131835938;1.539;-0.75390625;1.539;0.588867188;1.539;-0.792682946;1.539;12.07317066;1.539;-0.853658557
0.106603448;0;0.106603448;7.21752E-06;1.54575;0.132324219;1.54575;-0.754394531;1.54575;0.590332031;1.54575;-0.426829278;1.54575;12.19512177;1.54575;-0.853658557
0.107068966;0;0.107068966;6.54612E-06;1.5525;0.130859375;1.5525;-0.747070313;1.5525;0.591796875;1.5525;-0.243902445;1.5525;12.31707382;1.5525;-0.853658557
0.107534483;0;0.107534483;6.88182E-06;1.55925;0.12890625;1.55925;-0.744628906;1.55925;0.593261719;1.55925;-0.182926834;1.55925;12.74390316;1.55925;-1.097561002
0.108;7.55322E-06;0.108;7.55322E-06;1.566;0.126953125;1.566;-0.741210938;1.566;0.599121094;1.566;-0.365853667;1.566;12.92682934;1.566;-1.219512224
0.108465517;9.9031E-06;0.108465517;7.88891E-06;1.57275;0.127441406;1.57275;-0.743164063;1.57275;0.595214844;1.57275;-0.365853667;1.57275;13.10975647;1.57275;-1.463414669
0.108931034;7.55322E-06;0.108931034;5.03548E-06;1.5795;0.129394531;1.5795;-0.745117188;1.5795;0.595214844;1.5795;-0.609756112;1.5795;13.17073154;1.5795;-1.646341443
0.109396552;6.88182E-06;0.109396552;2.51774E-06;1.58625;0.125976563;1.58625;-0.747070313;1.58625;0.594726563;1.58625;-0.609756112;1.58625;13.23170757;1.58625;-1.585365891
0.109862069;8.89601E-06;0.109862069;4.19623E-06;1.593;0.124023438;1.593;-0.750976563;1.593;0.592773438;1.593;-0.48780489;1.593;13.23170757;1.593;-1.524390221
0.110327586;1.05745E-05;0.110327586;8.89601E-06;1.59975;0.125488281;1.59975;-0.751464844;1.59975;0.594726563;1.59975;-0.365853667;1.59975;13.23170757;1.59975;-1.768292665
0.110793103;9.23171E-06;0.110793103;1.19173E-05;1.6065;0.123046875;1.6065;-0.751953125;1.6065;0.600585938;1.6065;-0.48780489;1.6065;13.04878044;1.6065;-1.707317114
0.111258621;6.88182E-06;0.111258621;1.29244E-05;1.61325;0.122558594;1.61325;-0.751464844;1.61325;0.59765625;1.61325;-0.426829278;1.61325;12.80487823;1.61325;-1.707317114
0.111724138;5.20333E-06;0.111724138;1.29244E-05;1.62;0.123046875;1.62;-0.751953125;1.62;0.59765625;1.62;-0.48780489;1.62;12.80487823;1.62;-1.646341443
0.112189655;3.86053E-06;0.112189655;1.25887E-05;1.62675;0.123535156;1.62675;-0.754394531;1.62675;0.596191406;1.62675;-0.548780501;1.62675;12.56097603;1.62675;-1.768292665
0.112655172;5.53903E-06;0.112655172;1.32601E-05;1.6335;0.12109375;1.6335;-0.753417969;1.6335;0.594238281;1.6335;-0.48780489;1.6335;12.6219511;1.6335;-1.707317114
0.11312069;1.02388E-05;0.11312069;1.59457E-05;1.64025;0.119140625;1.64025;-0.750976563;1.64025;0.598144531;1.64025;0;1.64025;12.25609779;1.64025;-1.463414669
0.113586207;1.17494E-05;0.113586207;1.79599E-05;1.647;0.120117188;1.647;-0.74609375;1.647;0.599609375;1.647;0.121951222;1.647;12.31707382;1.647;-1.585365891
0.114051724;9.9031E-06;0.114051724;1.86313E-05;1.65375;0.123046875;1.65375;-0.741210938;1.65375;0.600097656;1.65375;-0.121951222;1.65375;12.31707382;1.65375;-1.463414669
0.114517241;6.88182E-06;0.114517241;1.66171E-05;1.6605;0.12109375;1.6605;-0.741699219;1.6605;0.598144531;1.6605;-0.121951222;1.6605;12.07317066;1.6605;-1.341463447
0.114982759;3.52483E-06;0.114982759;9.56741E-06;1.66725;0.12109375;1.66725;-0.741210938;1.66725;0.596679688;1.66725;-0.121951222;1.66725;11.89024448;1.66725;-1.219512224
0.115448276;5.03548E-07;0.115448276;-1.84634E-06;1.674;0.120605469;1.674;-0.7421875;1.674;0.596191406;1.674;-0.121951222;1.674;11.82926846;1.674;-1.158536553
0.115913793;-4.19623E-06;0.115913793;-1.32601E-05;1.68075;0.120605469;1.68075;-0.740722656;1.68075;0.595214844;1.68075;-0.060975611;1.68075;11.89024448;1.68075;-0.975609779
0.11637931;-7.21752E-06;0.11637931;-1.82956E-05;1.6875;0.118652344;1.6875;-0.742675781;1.6875;0.594238281;1.6875;-0.426829278;1.6875;11.64634132;1.6875;-0.853658557
0.116844828;-4.19623E-06;0.116844828;-1.52743E-05;1.69425;0.116210938;1.69425;-0.742675781;1.69425;0.596191406;1.69425;-0.426829278;1.69425;11.28048801;1.69425;-0.609756112
0.117310345;8.39246E-07;0.117310345;-9.56741E-06;1.701;0.121582031;1.701;-0.744628906;1.701;0.596679688;1.701;-0.548780501;1.701;11.21951199;1.701;-0.426829278
0.117775862;4.19623E-06;0.117775862;-4.36408E-06;1.70775;0.116699219;1.70775;-0.743164063;1.70775;0.597167969;1.70775;-0.548780501;1.70775;11.03658581;1.70775;-0.182926834
0.118241379;5.20333E-06;0.118241379;-1.84634E-06;1.7145;0.115234375;1.7145;-0.743652344;1.7145;0.594726563;1.7145;-0.731707335;1.7145;10.60975647;1.7145;0.182926834
0.118706897;7.21752E-06;0.118706897;-1.67849E-06;1.72125;0.115234375;1.72125;-0.746582031;1.72125;0.592773438;1.72125;-0.48780489;1.72125;10.36585426;1.72125;0.365853667
0.119172414;5.87472E-06;0.119172414;-3.18914E-06;1.728;0.114257813;1.728;-0.748535156;1.728;0.592773438;1.728;-0.48780489;1.728;10.30487823;1.728;0.426829278
0.119637931;1.84634E-06;0.119637931;-3.86053E-06;1.73475;0.116699219;1.73475;-0.748535156;1.73475;0.590332031;1.73475;-0.365853667;1.73475;10.36585426;1.73475;0.548780501
0.120103448;1.67849E-07;0.120103448;-2.18204E-06;1.7415;0.117675781;1.7415;-0.750488281;1.7415;0.593261719;1.7415;-0.182926834;1.7415;10.30487823;1.7415;0.48780489
0.120568966;3.35698E-07;0.120568966;1.67849E-07;1.74825;0.115234375;1.74825;-0.752441406;1.74825;0.59375;1.74825;-0.243902445;1.74825;10.30487823;1.74825;0.609756112
0.121034483;-5.03548E-07;0.121034483;1.17494E-06;1.755;0.114257813;1.755;-0.755859375;1.755;0.598144531;1.755;-0.121951222;1.755;10.36585426;1.755;0.670731723
0.1215;-1.51064E-06;0.1215;1.84634E-06;1.76175;0.115722656;1.76175;-0.755859375;1.76175;0.59765625;1.76175;-0.060975611;1.76175;10.1219511;1.76175;0.731707335
0.121965517;-1.51064E-06;0.121965517;4.86763E-06;1.7685;0.109863281;1.7685;-0.755371094;1.7685;0.596191406;1.7685;-0.060975611;1.7685;10;1.7685;0.670731723
0.122431034;-1.67849E-07;0.122431034;9.9031E-06;1.77525;0.108886719;1.77525;-0.755859375;1.77525;0.592773438;1.77525;0.304878056;1.77525;9.756097794;1.77525;0.975609779
0.122896552;2.18204E-06;0.122896552;1.19173E-05;1.782;0.102539063;1.782;-0.750976563;1.782;0.590332031;1.782;0.48780489;1.782;10;1.782;0.853658557
0.123362069;6.04257E-06;0.123362069;1.02388E-05;1.78875;0.102539063;1.78875;-0.75;1.78875;0.591308594;1.78875;0.609756112;1.78875;10.24390221;1.78875;0.731707335
0.123827586;9.06386E-06;0.123827586;8.56031E-06;1.7955;0.112304688;1.7955;-0.749023438;1.7955;0.595214844;1.7955;0.914634168;1.7955;10.24390221;1.7955;0.365853667
0.124293103;1.04067E-05;0.124293103;7.88891E-06;1.80225;0.115722656;1.80225;-0.751464844;1.80225;0.596191406;1.80225;1.219512224;1.80225;10.42682934;1.80225;0.060975611
0.124758621;1.12459E-05;0.124758621;8.22461E-06;1.809;0.1171875;1.809;-0.759277344;1.809;0.595214844;1.809;1.219512224;1.809;9.817073822;1.809;0.121951222
0.125224138;1.25887E-05;0.125224138;7.04967E-06;1.81575;0.117675781;1.81575;-0.768554688;1.81575;0.594238281;1.81575;1.158536553;1.81575;9.390244484;1.81575;0.060975611
0.125689655;1.39315E-05;0.125689655;7.04967E-06;1.8225;0.118652344;1.8225;-0.768066406;1.8225;0.592285156;1.8225;1.280487776;1.8225;8.719511986;1.8225;0
0.126155172;1.561E-05;0.126155172;7.55322E-06;1.82925;0.119140625;1.82925;-0.76171875;1.82925;0.594238281;1.82925;1.402438998;1.82925;8.292682648;1.82925;0.060975611
0.12662069;1.46029E-05;0.12662069;7.55322E-06;1.836;0.11328125;1.836;-0.755859375;1.836;0.592285156;1.836;1.219512224;1.836;7.743902683;1.836;0.243902445
0.127086207;1.35958E-05;0.127086207;7.21752E-06;1.84275;0.105957031;1.84275;-0.749511719;1.84275;0.598144531;1.84275;1.280487776;1.84275;7.439024448;1.84275;0.48780489
0.127551724;1.27565E-05;0.127551724;7.88891E-06;1.8495;0.104492188;1.8495;-0.744140625;1.8495;0.599121094;1.8495;1.219512224;1.8495;7.560975552;1.8495;0.792682946
0.128017241;1.19173E-05;0.128017241;9.56741E-06;1.85625;0.104980469;1.85625;-0.736816406;1.85625;0.600585938;1.85625;1.158536553;1.85625;7.13414669;1.85625;1.158536553
0.128482759;1.2253E-05;0.128482759;1.15816E-05;1.863;0.107910156;1.863;-0.739746094;1.863;0.600097656;1.863;1.280487776;1.863;7.195122242;1.863;1.524390221
0.128948276;1.2253E-05;0.128948276;1.19173E-05;1.86975;0.111816406;1.86975;-0.74609375;1.86975;0.594726563;1.86975;1.402438998;1.86975;7.195122242;1.86975;1.585365891
0.129413793;1.29244E-05;0.129413793;9.9031E-06;1.8765;0.116210938;1.8765;-0.749511719;1.8765;0.59375;1.8765;1.341463447;1.8765;6.707317352;1.8765;1.707317114
0.12987931;1.29244E-05;0.12987931;9.23171E-06;1.88325;0.118164063;1.88325;-0.751464844;1.88325;0.593261719;1.88325;1.402438998;1.88325;6.707317352;1.88325;1.707317114
0.130344828;1.25887E-05;0.130344828;9.9031E-06;1.89;0.118652344;1.89;-0.749511719;1.89;0.597167969;1.89;1.463414669;1.89;6.585365772;1.89;1.890243888
0.130810345;1.32601E-05;0.130810345;9.23171E-06;1.89675;0.120605469;1.89675;-0.750488281;1.89675;0.594238281;1.89675;1.524390221;1.89675;6.890244007;1.89675;1.829268336
0.131275862;1.39315E-05;0.131275862;7.21752E-06;1.9035;0.115234375;1.9035;-0.750488281;1.9035;0.59765625;1.9035;1.585365891;1.9035;6.707317352;1.9035;1.707317114
0.131741379;1.46029E-05;0.131741379;4.36408E-06;1.91025;0.1171875;1.91025;-0.747558594;1.91025;0.598144531;1.91025;1.402438998;1.91025;6.646341801;1.91025;1.646341443
0.132206897;1.37636E-05;0.132206897;5.03548E-07;1.917;0.116699219;1.917;-0.744140625;1.917;0.59375;1.917;1.585365891;1.917;6.646341801;1.917;1.646341443
0.132672414;1.12459E-05;0.132672414;-8.39246E-07;1.92375;0.112792969;1.92375;-0.748046875;1.92375;0.595703125;1.92375;1.829268336;1.92375;6.707317352;1.92375;1.707317114
0.133137931;7.88891E-06;0.133137931;-1.67849E-07;1.9305;0.111328125;1.9305;-0.748535156;1.9305;0.595214844;1.9305;1.951219559;1.9305;6.829268456;1.9305;1.768292665
0.133603448;7.55322E-06;0.133603448;1.17494E-06;1.93725;0.111328125;1.93725;-0.748535156;1.93725;0.595214844;1.93725;1.951219559;1.93725;6.707317352;1.93725;2.01219511
0.134068966;9.23171E-06;0.134068966;3.02129E-06;1.944;0.110839844;1.944;-0.750976563;1.944;0.596191406;1.944;2.073170662;1.944;6.829268456;1.944;1.829268336
0.134534483;1.02388E-05;0.134534483;2.51774E-06;1.95075;0.112304688;1.95075;-0.747070313;1.95075;0.597167969;1.95075;2.195122004;1.95075;7.073170662;1.95075;1.646341443
0.135;8.56031E-06;0.135;8.39246E-07;1.9575;0.11328125;1.9575;-0.745117188;1.9575;0.600585938;1.9575;2.317073107;1.9575;6.951219559;1.9575;1.524390221
0.135465517;5.87472E-06;0.135465517;-5.03548E-07;1.96425;0.115234375;1.96425;-0.742675781;1.96425;0.6015625;1.96425;2.134146452;1.96425;6.951219559;1.96425;1.524390221
0.135931034;5.87472E-06;0.135931034;-8.39246E-07;1.971;0.115722656;1.971;-0.7421875;1.971;0.601074219;1.971;1.890243888;1.971;6.768292904;1.971;1.646341443
0.136396552;7.21752E-06;0.136396552;-1.17494E-06;1.97775;0.116699219;1.97775;-0.745605469;1.97775;0.600097656;1.97775;1.829268336;1.97775;6.585365772;1.97775;1.646341443
0.136862069;9.23171E-06;0.136862069;-1.51064E-06;1.9845;0.115234375;1.9845;-0.745605469;1.9845;0.596191406;1.9845;1.829268336;1.9845;6.402439117;1.9845;1.829268336
0.137327586;1.25887E-05;0.137327586;-1.67849E-07;1.99125;0.116699219;1.99125;-0.744628906;1.99125;0.595214844;1.99125;1.768292665;1.99125;6.341463566;1.99125;1.768292665
0.137793103;1.37636E-05;0.137793103;3.18914E-06;1.998;0.115234375;1.998;-0.748535156;1.998;0.601074219;1.998;1.829268336;1.998;6.585365772;1.998;1.463414669
0.138258621;1.25887E-05;0.138258621;4.53193E-06;2.00475;0.119628906;2.00475;-0.748046875;2.00475;0.599121094;2.00475;2.134146452;2.00475;6.585365772;2.00475;1.402438998
0.138724138;1.19173E-05;0.138724138;3.86053E-06;2.0115;0.119140625;2.0115;-0.749023438;2.0115;0.600097656;2.0115;2.073170662;2.0115;6.524390221;2.0115;1.402438998
0.139189655;1.10781E-05;0.139189655;1.67849E-06;2.01825;0.118164063;2.01825;-0.744628906;2.01825;0.6015625;2.01825;1.951219559;2.01825;6.524390221;2.01825;1.219512224
0.139655172;9.73526E-06;0.139655172;-1.17494E-06;2.025;0.119628906;2.025;-0.7421875;2.025;0.602050781;2.025;1.829268336;2.025;6.463414669;2.025;0.975609779
0.14012069;9.73526E-06;0.14012069;-2.18204E-06;2.03175;0.119140625;2.03175;-0.7421875;2.03175;0.600585938;2.03175;2.073170662;2.03175;6.219512463;2.03175;0.914634168
0.140586207;1.05745E-05;0.140586207;-8.39246E-07;2.0385;0.116699219;2.0385;-0.740234375;2.0385;0.602050781;2.0385;2.195122004;2.0385;6.158536911;2.0385;1.158536553
0.141051724;1.15816E-05;0.141051724;-1.67849E-07;2.04525;0.116210938;2.04525;-0.739257813;2.04525;0.6015625;2.04525;1.890243888;2.04525;5.975609779;2.04525;1.219512224
0.141517241;1.12459E-05;0.141517241;-5.03548E-07;2.052;0.120605469;2.052;-0.738769531;2.052;0.604492188;2.052;1.707317114;2.052;5.975609779;2.052;1.280487776
0.141982759;1.12459E-05;0.141982759;-2.85344E-06;2.05875;0.118652344;2.05875;-0.736816406;2.05875;0.606445313;2.05875;1.829268336;2.05875;5.792683125;2.05875;1.341463447
0.142448276;1.2253E-05;0.142448276;-4.86763E-06;2.0655;0.113769531;2.0655;-0.734863281;2.0655;0.603027344;2.0655;1.707317114;2.0655;5.975609779;2.0655;1.219512224
0.142913793;1.32601E-05;0.142913793;-4.19623E-06;2.07225;0.114257813;2.07225;-0.736328125;2.07225;0.6015625;2.07225;1.524390221;2.07225;6.097560883;2.07225;1.158536553
0.14337931;1.35958E-05;0.14337931;-1.51064E-06;2.079;0.118652344;2.079;-0.737304688;2.079;0.599609375;2.079;1.524390221;2.079;6.219512463;2.079;1.219512224
0.143844828;1.2253E-05;0.143844828;3.52483E-06;2.08575;0.118164063;2.08575;-0.737304688;2.08575;0.602050781;2.08575;1.280487776;2.08575;6.219512463;2.08575;1.036585331
0.144310345;1.15816E-05;0.144310345;5.87472E-06;2.0925;0.123046875;2.0925;-0.737792969;2.0925;0.599609375;2.0925;1.097561002;2.0925;6.219512463;2.0925;1.097561002
0.144775862;1.15816E-05;0.144775862;4.53193E-06;2.09925;0.118652344;2.09925;-0.73828125;2.09925;0.602050781;2.09925;1.097561002;2.09925;6.402439117;2.09925;0.914634168
0.145241379;1.24208E-05;0.145241379;7.21752E-06;2.106;0.119628906;2.106;-0.734863281;2.106;0.602539063;2.106;1.097561002;2.106;6.341463566;2.106;0.975609779
0.145706897;1.32601E-05;0.145706897;1.12459E-05;2.11275;0.123535156;2.11275;-0.738769531;2.11275;0.603027344;2.11275;0.975609779;2.11275;6.402439117;2.11275;0.792682946
0.146172414;1.2253E-05;0.146172414;1.14137E-05;2.1195;0.124023438;2.1195;-0.736816406;2.1195;0.603515625;2.1195;0.975609779;2.1195;6.402439117;2.1195;0.731707335
0.146637931;9.9031E-06;0.146637931;9.9031E-06;2.12625;0.119628906;2.12625;-0.739257813;2.12625;0.603515625;2.12625;1.036585331;2.12625;6.524390221;2.12625;0.670731723
0.147103448;9.56741E-06;0.147103448;9.06386E-06;2.133;0.119140625;2.133;-0.736328125;2.133;0.604980469;2.133;0.975609779;2.133;6.402439117;2.133;0.792682946
0.147568966;1.05745E-05;0.147568966;8.22461E-06;2.13975;0.122558594;2.13975;-0.735351563;2.13975;0.604980469;2.13975;0.792682946;2.13975;6.524390221;2.13975;0.792682946
0.148034483;1.24208E-05;0.148034483;6.88182E-06;2.1465;0.121582031;2.1465;-0.734375;2.1465;0.605957031;2.1465;0.548780501;2.1465;6.524390221;2.1465;0.548780501
0.1485;1.39315E-05;0.1485;5.87472E-06;2.15325;0.121582031;2.15325;-0.733886719;2.15325;0.60546875;2.15325;0.548780501;2.15325;6.768292904;2.15325;0.609756112
0.148965517;1.52743E-05;0.148965517;7.21752E-06;2.16;0.121582031;2.16;-0.734375;2.16;0.604492188;2.16;0.365853667;2.16;6.768292904;2.16;0.426829278
0.149431034;1.59457E-05;0.149431034;6.88182E-06;2.16675;0.12109375;2.16675;-0.736816406;2.16675;0.603515625;2.16675;0.365853667;2.16675;6.707317352;2.16675;0.304878056
0.149896552;1.52743E-05;0.149896552;5.20333E-06;2.1735;0.122558594;2.1735;-0.739746094;2.1735;0.600097656;2.1735;0.365853667;2.1735;6.646341801;2.1735;0.426829278
0.150362069;1.32601E-05;0.150362069;3.86053E-06;2.18025;0.123046875;2.18025;-0.740722656;2.18025;0.604980469;2.18025;0.243902445;2.18025;6.646341801;2.18025;0.48780489
0.150827586;1.19173E-05;0.150827586;4.69978E-06;2.187;0.123046875;2.187;-0.739257813;2.187;0.604003906;2.187;0;2.187;6.768292904;2.187;0.365853667
0.151293103;1.17494E-05;0.151293103;5.70687E-06;2.19375;0.122558594;2.19375;-0.739257813;2.19375;0.604003906;2.19375;0;2.19375;7.01219511;2.19375;0.365853667
0.151758621;1.24208E-05;0.151758621;3.86053E-06;2.2005;0.124023438;2.2005;-0.736816406;2.2005;0.604492188;2.2005;0;2.2005;6.951219559;2.2005;0.365853667
0.152224138;1.05745E-05;0.152224138;-1.17494E-06;2.20725;0.122558594;2.20725;-0.73828125;2.20725;0.605957031;2.20725;0.121951222;2.20725;7.01219511;2.20725;0.426829278
0.152689655;4.53193E-06;0.152689655;-7.21752E-06;2.214;0.123046875;2.214;-0.741210938;2.214;0.606445313;2.214;-0.060975611;2.214;7.13414669;2.214;0.48780489
0.153155172;-1.51064E-06;0.153155172;-1.2253E-05;2.22075;0.123046875;2.22075;-0.7421875;2.22075;0.603515625;2.22075;-0.243902445;2.22075;7.195122242;2.22075;0.48780489
0.15362069;-3.86053E-06;0.15362069;-1.46029E-05;2.2275;0.120117188;2.2275;-0.73828125;2.2275;0.6015625;2.2275;-0.121951222;2.2275;7.195122242;2.2275;0.48780489
0.154086207;-4.53193E-06;0.154086207;-1.25887E-05;2.23425;0.120605469;2.23425;-0.7421875;2.23425;0.601074219;2.23425;-0.121951222;2.23425;7.439024448;2.23425;0.548780501
0.154551724;-3.69268E-06;0.154551724;-1.09102E-05;2.241;0.122558594;2.241;-0.740722656;2.241;0.598632813;2.241;0.060975611;2.241;7.743902683;2.241;0.609756112
0.155017241;-1.51064E-06;0.155017241;-8.22461E-06;2.24775;0.120605469;2.24775;-0.737792969;2.24775;0.598632813;2.24775;-0.060975611;2.24775;7.560975552;2.24775;0.609756112
0.155482759;8.39246E-07;0.155482759;-2.85344E-06;2.2545;0.119628906;2.2545;-0.740234375;2.2545;0.59765625;2.2545;-0.182926834;2.2545;7.743902683;2.2545;0.548780501
0.155948276;2.18204E-06;0.155948276;3.52483E-06;2.26125;0.121582031;2.26125;-0.7421875;2.26125;0.599121094;2.26125;-0.243902445;2.26125;7.926829338;2.26125;0.548780501
0.156413793;2.85344E-06;0.156413793;8.22461E-06;2.268;0.119628906;2.268;-0.743652344;2.268;0.598144531;2.268;-0.304878056;2.268;8.048780441;2.268;0.426829278
0.15687931;5.03548E-06;0.15687931;1.24208E-05;2.27475;0.1171875;2.27475;-0.74609375;2.27475;0.596679688;2.27475;-0.548780501;2.27475;8.170731544;2.27475;0.365853667
0.157344828;8.39246E-06;0.157344828;1.82956E-05;2.2815;0.119628906;2.2815;-0.74609375;2.2815;0.596191406;2.2815;-0.365853667;2.2815;8.414634705;2.2815;0.48780489
0.157810345;9.23171E-06;0.157810345;2.56809E-05;2.28825;0.120605469;2.28825;-0.748535156;2.28825;0.598632813;2.28825;-0.304878056;2.28825;8.963415146;2.28825;0.365853667
0.158275862;8.89601E-06;0.158275862;3.10521E-05;2.295;0.12109375;2.295;-0.749511719;2.295;0.595703125;2.295;-0.243902445;2.295;9.268292427;2.295;0.121951222
0.158741379;7.55322E-06;0.158741379;3.40734E-05;2.30175;0.119628906;2.30175;-0.750976563;2.30175;0.595214844;2.30175;-0.304878056;2.30175;9.390244484;2.30175;0.182926834
0.159206897;7.21752E-06;0.159206897;3.54162E-05;2.3085;0.12109375;2.3085;-0.750488281;2.3085;0.595703125;2.3085;-0.304878056;2.3085;9.695121765;2.3085;0.121951222
0.159672414;5.87472E-06;0.159672414;3.20592E-05;2.31525;0.117675781;2.31525;-0.750976563;2.31525;0.603027344;2.31525;-0.304878056;2.31525;9.512195587;2.31525;0.121951222
0.160137931;3.69268E-06;0.160137931;1.96384E-05;2.322;0.115234375;2.322;-0.746582031;2.322;0.601074219;2.322;-0.365853667;2.322;9.390244484;2.322;0.243902445
0.160603448;-2.01419E-06;0.160603448;-1.67849E-07;2.32875;0.109863281;2.32875;-0.743652344;2.32875;0.599609375;2.32875;-0.304878056;2.32875;9.146341324;2.32875;0.060975611
0.161068966;-6.37827E-06;0.161068966;-1.8967E-05;2.3355;0.103515625;2.3355;-0.740234375;2.3355;0.596679688;2.3355;0;2.3355;9.512195587;2.3355;0
0.161534483;-5.20333E-06;0.161534483;-2.70237E-05;2.34225;0.102050781;2.34225;-0.73828125;2.34225;0.596679688;2.34225;0.060975611;2.34225;9.817073822;2.34225;-0.121951222
0.162;-1.51064E-06;0.162;-2.29953E-05;2.349;0.099121094;2.349;-0.740234375;2.349;0.596679688;2.349;0;2.349;9.817073822;2.349;-0.182926834
0.162465517;5.03548E-07;0.162465517;-1.46029E-05;2.35575;0.102539063;2.35575;-0.745117188;2.35575;0.59375;2.35575;0.121951222;2.35575;10;2.35575;-0.365853667
0.162931034;6.71397E-07;0.162931034;-6.88182E-06;2.3625;0.112304688;2.3625;-0.753417969;2.3625;0.594726563;2.3625;0;2.3625;9.939024925;2.3625;-0.609756112
0.163396552;-1.67849E-07;0.163396552;-3.18914E-06;2.36925;0.116699219;2.36925;-0.755859375;2.36925;0.596191406;2.36925;0;2.36925;9.573170662;2.36925;-0.914634168
0.163862069;5.03548E-07;0.163862069;-2.85344E-06;2.376;0.122558594;2.376;-0.757324219;2.376;0.596191406;2.376;0;2.376;9.451219559;2.376;-1.219512224
0.164327586;2.85344E-06;0.164327586;-4.53193E-06;2.38275;0.122070313;2.38275;-0.758789063;2.38275;0.595703125;2.38275;0;2.38275;9.146341324;2.38275;-1.341463447
0.164793103;5.20333E-06;0.164793103;-4.53193E-06;2.3895;0.119140625;2.3895;-0.754882813;2.3895;0.594238281;2.3895;0.243902445;2.3895;8.597560883;2.3895;-1.280487776
0.165258621;6.88182E-06;0.165258621;-2.18204E-06;2.39625;0.110839844;2.39625;-0.749511719;2.39625;0.597167969;2.39625;0.426829278;2.39625;8.10975647;2.39625;-1.036585331
0.165724138;7.55322E-06;0.165724138;5.03548E-07;2.403;0.103027344;2.403;-0.745605469;2.403;0.598144531;2.403;0.365853667;2.403;7.865853786;2.403;-0.853658557
0.166189655;8.89601E-06;0.166189655;4.19623E-06;2.40975;0.102539063;2.40975;-0.74609375;2.40975;0.602050781;2.40975;0.48780489;2.40975;7.98780489;2.40975;-0.670731723
0.166655172;9.23171E-06;0.166655172;8.56031E-06;2.4165;0.104003906;2.4165;-0.743164063;2.4165;0.600097656;2.4165;0.426829278;2.4165;8.048780441;2.4165;-0.670731723
0.16712069;1.05745E-05;0.16712069;1.24208E-05;2.42325;0.106933594;2.42325;-0.744140625;2.42325;0.599121094;2.42325;0.426829278;2.42325;8.048780441;2.42325;-0.731707335
0.167586207;1.42672E-05;0.167586207;1.72885E-05;2.43;0.108398438;2.43;-0.741210938;2.43;0.599609375;2.43;0.365853667;2.43;8.048780441;2.43;-0.48780489
0.168051724;1.59457E-05;0.168051724;2.03098E-05;2.43675;0.111816406;2.43675;-0.739746094;2.43675;0.601074219;2.43675;0.304878056;2.43675;7.865853786;2.43675;-0.48780489
0.168517241;1.52743E-05;0.168517241;2.03098E-05;2.4435;0.114746094;2.4435;-0.740722656;2.4435;0.600585938;2.4435;0.304878056;2.4435;7.926829338;2.4435;-0.426829278
0.168982759;1.561E-05;0.168982759;1.79599E-05;2.45025;0.118164063;2.45025;-0.745117188;2.45025;0.602050781;2.45025;0.182926834;2.45025;7.804878235;2.45025;-0.243902445
0.169448276;1.69528E-05;0.169448276;1.32601E-05;2.457;0.116210938;2.457;-0.743652344;2.457;0.601074219;2.457;-0.060975611;2.457;7.926829338;2.457;0.060975611
0.169913793;1.52743E-05;0.169913793;8.89601E-06;2.46375;0.1171875;2.46375;-0.743164063;2.46375;0.599609375;2.46375;-0.121951222;2.46375;7.804878235;2.46375;0
0.17037931;1.29244E-05;0.17037931;7.72107E-06;2.4705;0.11328125;2.4705;-0.744140625;2.4705;0.600585938;2.4705;-0.121951222;2.4705;7.804878235;2.4705;0
0.170844828;1.35958E-05;0.170844828;7.88891E-06;2.47725;0.11328125;2.47725;-0.744628906;2.47725;0.6015625;2.47725;-0.060975611;2.47725;7.743902683;2.47725;0.060975611
0.171310345;1.46029E-05;0.171310345;9.23171E-06;2.484;0.115234375;2.484;-0.743652344;2.484;0.604492188;2.484;0.182926834;2.484;7.98780489;2.484;0.243902445
0.171775862;1.39315E-05;0.171775862;9.9031E-06;2.49075;0.112792969;2.49075;-0.743652344;2.49075;0.602050781;2.49075;0.365853667;2.49075;8.10975647;2.49075;0.243902445
0.172241379;1.32601E-05;0.172241379;1.05745E-05;2.4975;0.112304688;2.4975;-0.744628906;2.4975;0.602050781;2.4975;0.48780489;2.4975;8.170731544;2.4975;0.243902445
0.172706897;1.29244E-05;0.172706897;9.9031E-06;2.50425;0.112792969;2.50425;-0.748046875;2.50425;0.604980469;2.50425;0.609756112;2.50425;8.353658676;2.50425;0.121951222
0.173172414;1.25887E-05;0.173172414;6.21042E-06;2.511;0.112304688;2.511;-0.747558594;2.511;0.602050781;2.511;0.853658557;2.511;8.414634705;2.511;0.182926834
0.173637931;1.17494E-05;0.173637931;-1.84634E-06;2.51775;0.115234375;2.51775;-0.749511719;2.51775;0.605957031;2.51775;0.853658557;2.51775;8.292682648;2.51775;0.182926834
0.174103448;1.19173E-05;0.174103448;-8.22461E-06;2.5245;0.110839844;2.5245;-0.747558594;2.5245;0.604003906;2.5245;0.792682946;2.5245;8.10975647;2.5245;0.304878056
0.174568966;1.25887E-05;0.174568966;-9.56741E-06;2.53125;0.113769531;2.53125;-0.747558594;2.53125;0.605957031;2.53125;0.670731723;2.53125;7.98780489;2.53125;0.304878056
0.175034483;1.19173E-05;0.175034483;-7.55322E-06;2.538;0.115234375;2.538;-0.746582031;2.538;0.602050781;2.538;0.48780489;2.538;8.10975647;2.538;0.426829278
0.1755;1.19173E-05;0.1755;-5.87472E-06;2.54475;0.109375;2.54475;-0.745117188;2.54475;0.600097656;2.54475;0.670731723;2.54475;7.62195158;2.54475;0.670731723
0.175965517;1.42672E-05;0.175965517;-4.19623E-06;2.5515;0.109863281;2.5515;-0.7421875;2.5515;0.599609375;2.5515;0.731707335;2.5515;7.195122242;2.5515;0.792682946
0.176431034;1.7792E-05;0.176431034;-2.18204E-06;2.55825;0.111816406;2.55825;-0.739746094;2.55825;0.604003906;2.55825;0.48780489;2.55825;7.195122242;2.55825;0.853658557
0.176896552;1.93027E-05;0.176896552;-2.85344E-06;2.565;0.115234375;2.565;-0.739746094;2.565;0.603027344;2.565;0.48780489;2.565;7.378048897;2.565;0.853658557
0.177362069;1.86313E-05;0.177362069;-4.86763E-06;2.57175;0.114257813;2.57175;-0.740722656;2.57175;0.602050781;2.57175;0.548780501;2.57175;7.317073345;2.57175;0.609756112
0.177827586;1.66171E-05;0.177827586;-3.52483E-06;2.5785;0.116210938;2.5785;-0.73828125;2.5785;0.602539063;2.5785;0.548780501;2.5785;7.317073345;2.5785;0.731707335
0.178293103;1.4435E-05;0.178293103;-1.0071E-06;2.58525;0.1171875;2.58525;-0.741210938;2.58525;0.6015625;2.58525;0.548780501;2.58525;7.256097794;2.58525;0.609756112
0.178758621;1.39315E-05;0.178758621;5.03548E-07;2.592;0.121582031;2.592;-0.742675781;2.592;0.600097656;2.592;0.609756112;2.592;7.256097794;2.592;0.548780501
0.179224138;1.52743E-05;0.179224138;8.39246E-07;2.59875;0.120605469;2.59875;-0.740722656;2.59875;0.599609375;2.59875;0.731707335;2.59875;7.073170662;2.59875;0.426829278
0.179689655;1.76242E-05;0.179689655;1.51064E-06;2.6055;0.122070313;2.6055;-0.740234375;2.6055;0.599121094;2.6055;0.670731723;2.6055;7.317073345;2.6055;0.48780489
0.180155172;1.79599E-05;0.180155172;5.70687E-06;2.61225;0.119628906;2.61225;-0.741210938;2.61225;0.59765625;2.61225;0.670731723;2.61225;7.195122242;2.61225;0.426829278
0.18062069;1.79599E-05;0.18062069;9.9031E-06;2.619;0.118652344;2.619;-0.743164063;2.619;0.598632813;2.619;0.792682946;2.619;7.195122242;2.619;0.426829278
0.181086207;1.76242E-05;0.181086207;1.32601E-05;2.62575;0.118652344;2.62575;-0.742675781;2.62575;0.600585938;2.62575;0.792682946;2.62575;7.439024448;2.62575;0.182926834
0.181551724;1.66171E-05;0.181551724;1.49386E-05;2.6325;0.120117188;2.6325;-0.744140625;2.6325;0.599609375;2.6325;0.914634168;2.6325;7.195122242;2.6325;0.243902445
0.182017241;1.59457E-05;0.182017241;1.69528E-05;2.63925;0.118164063;2.63925;-0.745605469;2.63925;0.600585938;2.63925;1.280487776;2.63925;7.13414669;2.63925;0.060975611
0.182482759;1.51064E-05;0.182482759;1.86313E-05;2.646;0.119140625;2.646;-0.743164063;2.646;0.600097656;2.646;1.402438998;2.646;7.195122242;2.646;-0.182926834
0.182948276;1.49386E-05;0.182948276;1.93027E-05;2.65275;0.119628906;2.65275;-0.744628906;2.65275;0.6015625;2.65275;1.463414669;2.65275;7.256097794;2.65275;-0.182926834
0.183413793;1.46029E-05;0.183413793;2.09812E-05;2.6595;0.121582031;2.6595;-0.743164063;2.6595;0.600585938;2.6595;1.585365891;2.6595;7.256097794;2.6595;-0.182926834
0.18387931;1.46029E-05;0.18387931;2.60166E-05;2.66625;0.120605469;2.66625;-0.745117188;2.66625;0.599609375;2.66625;1.585365891;2.66625;7.439024448;2.66625;-0.243902445
0.184344828;1.46029E-05;0.184344828;3.27306E-05;2.673;0.118164063;2.673;-0.742675781;2.673;0.600097656;2.673;1.646341443;2.673;7.378048897;2.673;-0.182926834
0.184810345;1.46029E-05;0.184810345;3.47448E-05;2.67975;0.121582031;2.67975;-0.745605469;2.67975;0.599609375;2.67975;1.646341443;2.67975;7.5;2.67975;-0.243902445
0.185275862;1.39315E-05;0.185275862;3.07164E-05;2.6865;0.117675781;2.6865;-0.744140625;2.6865;0.603027344;2.6865;1.707317114;2.6865;7.682927132;2.6865;-0.426829278
0.185741379;1.25887E-05;0.185741379;2.50095E-05;2.69325;0.120117188;2.69325;-0.742675781;2.69325;0.602539063;2.69325;1.646341443;2.69325;7.682927132;2.69325;-0.304878056
0.186206897;1.15816E-05;0.186206897;2.13169E-05;2.7;0.117675781;2.7;-0.740234375;2.7;0.602539063;2.7;1.768292665;2.7;7.62195158;2.7;-0.304878056
0.186672414;1.29244E-05;0.186672414;2.06455E-05;2.70675;0.120605469;2.70675;-0.741699219;2.70675;0.600585938;2.70675;1.463414669;2.70675;7.62195158;2.70675;0
0.187137931;1.42672E-05;0.187137931;2.09812E-05;2.7135;0.122070313;2.7135;-0.739746094;2.7135;0.601074219;2.7135;1.280487776;2.7135;7.560975552;2.7135;-0.121951222
0.187603448;1.46029E-05;0.187603448;2.03098E-05;2.72025;0.123046875;2.72025;-0.740234375;2.72025;0.604492188;2.72025;1.341463447;2.72025;7.378048897;2.72025;-0.182926834
0.188068966;1.29244E-05;0.188068966;1.82956E-05;2.727;0.118652344;2.727;-0.740722656;2.727;0.604003906;2.727;1.524390221;2.727;7.439024448;2.727;0.121951222
0.188534483;1.05745E-05;0.188534483;1.49386E-05;2.73375;0.120605469;2.73375;-0.738769531;2.73375;0.603515625;2.73375;1.585365891;2.73375;7.439024448;2.73375;-0.060975611
0.189;1.19173E-05;0.189;1.19173E-05;2.7405;0.121582031;2.7405;-0.739746094;2.7405;0.604980469;2.7405;1.646341443;2.7405;7.560975552;2.7405;0
0.189465517;1.35958E-05;0.189465517;1.19173E-05;2.74725;0.118652344;2.74725;-0.737304688;2.74725;0.603515625;2.74725;1.646341443;2.74725;7.5;2.74725;0.060975611
0.189931034;1.39315E-05;0.189931034;1.17494E-05;2.754;0.121582031;2.754;-0.735839844;2.754;0.606445313;2.754;1.768292665;2.754;7.560975552;2.754;0.060975611
0.190396552;1.39315E-05;0.190396552;1.05745E-05;2.76075;0.122070313;2.76075;-0.735351563;2.76075;0.605957031;2.76075;1.829268336;2.76075;7.682927132;2.76075;0.182926834
0.190862069;1.42672E-05;0.190862069;9.23171E-06;2.7675;0.118164063;2.7675;-0.734863281;2.7675;0.604492188;2.7675;1.768292665;2.7675;7.743902683;2.7675;0.243902445
0.191327586;1.32601E-05;0.191327586;9.06386E-06;2.77425;0.119140625;2.77425;-0.734375;2.77425;0.603027344;2.77425;1.829268336;2.77425;7.682927132;2.77425;0.182926834
0.191793103;1.09102E-05;0.191793103;6.88182E-06;2.781;0.121582031;2.781;-0.735351563;2.781;0.607910156;2.781;1.585365891;2.781;7.682927132;2.781;0.182926834
0.192258621;8.39246E-06;0.192258621;2.01419E-06;2.78775;0.12109375;2.78775;-0.737304688;2.78775;0.604980469;2.78775;1.646341443;2.78775;7.804878235;2.78775;0.060975611
0.192724138;5.87472E-06;0.192724138;-4.19623E-06;2.7945;0.124023438;2.7945;-0.737792969;2.7945;0.603027344;2.7945;1.646341443;2.7945;7.865853786;2.7945;0.182926834
0.193189655;4.19623E-06;0.193189655;-9.23171E-06;2.80125;0.125;2.80125;-0.740722656;2.80125;0.604003906;2.80125;1.585365891;2.80125;7.865853786;2.80125;0.243902445
0.193655172;3.69268E-06;0.193655172;-1.15816E-05;2.808;0.123535156;2.808;-0.739257813;2.808;0.604980469;2.808;1.646341443;2.808;7.926829338;2.808;0.182926834
0.19412069;6.54612E-06;0.19412069;-9.9031E-06;2.81475;0.122070313;2.81475;-0.735839844;2.81475;0.604492188;2.81475;1.463414669;2.81475;7.926829338;2.81475;0.243902445
0.194586207;1.05745E-05;0.194586207;-5.53903E-06;2.8215;0.123046875;2.8215;-0.735351563;2.8215;0.609375;2.8215;1.524390221;2.8215;7.865853786;2.8215;-0.121951222
0.195051724;1.32601E-05;0.195051724;-1.67849E-06;2.82825;0.121582031;2.82825;-0.735351563;2.82825;0.607910156;2.82825;1.463414669;2.82825;7.98780489;2.82825;0.182926834
0.195517241;1.29244E-05;0.195517241;-5.03548E-07;2.835;0.120605469;2.835;-0.734375;2.835;0.607910156;2.835;1.585365891;2.835;7.926829338;2.835;0.304878056
0.195982759;1.05745E-05;0.195982759;-1.51064E-06;2.84175;0.121582031;2.84175;-0.731933594;2.84175;0.608886719;2.84175;1.463414669;2.84175;7.98780489;2.84175;0.060975611
0.196448276;9.9031E-06;0.196448276;-2.85344E-06;2.8485;0.121582031;2.8485;-0.733886719;2.8485;0.607910156;2.8485;1.524390221;2.8485;7.865853786;2.8485;0.182926834
0.196913793;9.06386E-06;0.196913793;-4.19623E-06;2.85525;0.116210938;2.85525;-0.736816406;2.85525;0.608398438;2.85525;1.402438998;2.85525;7.926829338;2.85525;0.243902445
0.19737931;7.21752E-06;0.19737931;-5.53903E-06;2.862;0.122558594;2.862;-0.734863281;2.862;0.606933594;2.862;1.341463447;2.862;8.170731544;2.862;0.243902445
0.197844828;5.20333E-06;0.197844828;-5.53903E-06;2.86875;0.123046875;2.86875;-0.73046875;2.86875;0.608398438;2.86875;1.341463447;2.86875;8.170731544;2.86875;0.060975611
0.198310345;4.36408E-06;0.198310345;-4.36408E-06;2.8755;0.126464844;2.8755;-0.732421875;2.8755;0.611328125;2.8755;1.402438998;2.8755;8.10975647;2.8755;0.060975611
0.198775862;5.87472E-06;0.198775862;-2.85344E-06;2.88225;0.125;2.88225;-0.735351563;2.88225;0.612304688;2.88225;1.402438998;2.88225;8.414634705;2.88225;0.121951222
0.199241379;7.21752E-06;0.199241379;-2.34989E-06;2.889;0.124511719;2.889;-0.739257813;2.889;0.609375;2.889;1.097561002;2.889;8.231707573;2.889;0.243902445
0.199706897;7.21752E-06;0.199706897;-4.36408E-06;2.89575;0.121582031;2.89575;-0.739257813;2.89575;0.608398438;2.89575;1.402438998;2.89575;7.98780489;2.89575;0.182926834
0.200172414;5.53903E-06;0.200172414;-8.39246E-06;2.9025;0.11328125;2.9025;-0.73828125;2.9025;0.606933594;2.9025;1.402438998;2.9025;8.10975647;2.9025;0.304878056
0.200637931;4.53193E-06;0.200637931;-1.19173E-05;2.90925;0.113769531;2.90925;-0.736816406;2.90925;0.603515625;2.90925;1.646341443;2.90925;8.170731544;2.90925;0.060975611
0.201103448;5.53903E-06;0.201103448;-1.2253E-05;2.916;0.115722656;2.916;-0.734863281;2.916;0.603515625;2.916;1.829268336;2.916;8.536585808;2.916;-0.121951222
0.201568966;6.54612E-06;0.201568966;-9.56741E-06;2.92275;0.123535156;2.92275;-0.73828125;2.92275;0.606933594;2.92275;1.707317114;2.92275;8.475609779;2.92275;-0.243902445
0.202034483;7.55322E-06;0.202034483;-6.21042E-06;2.9295;0.123535156;2.9295;-0.741699219;2.9295;0.605957031;2.9295;1.707317114;2.9295;8.475609779;2.9295;-0.060975611
0.2025;7.88891E-06;0.2025;-7.88891E-06;2.93625;0.128417969;2.93625;-0.740234375;2.93625;0.608886719;2.93625;1.585365891;2.93625;8.170731544;2.93625;-0.365853667
0.202965517;9.23171E-06;0.202965517;-1.15816E-05;2.943;0.129394531;2.943;-0.743652344;2.943;0.607421875;2.943;1.463414669;2.943;8.048780441;2.943;-0.365853667
0.203431034;1.25887E-05;0.203431034;-1.07424E-05;2.94975;0.126953125;2.94975;-0.746582031;2.94975;0.608886719;2.94975;1.890243888;2.94975;7.98780489;2.94975;-0.670731723
0.203896552;1.52743E-05;0.203896552;-5.87472E-06;2.9565;0.126464844;2.9565;-0.745117188;2.9565;0.60546875;2.9565;1.890243888;2.9565;7.5;2.9565;-0.48780489
0.204362069;1.69528E-05;0.204362069;-8.39246E-07;2.96325;0.121582031;2.96325;-0.734375;2.96325;0.606933594;2.96325;1.707317114;2.96325;7.195122242;2.96325;-0.365853667
0.204827586;1.82956E-05;0.204827586;3.86053E-06;2.97;0.118652344;2.97;-0.732910156;2.97;0.609863281;2.97;1.768292665;2.97;6.951219559;2.97;-0.121951222
0.205293103;1.86313E-05;0.205293103;8.56031E-06;2.97675;0.116699219;2.97675;-0.729980469;2.97675;0.609375;2.97675;2.134146452;2.97675;7.01219511;2.97675;0.060975611
0.205758621;1.79599E-05;0.205758621;9.9031E-06;2.9835;0.117675781;2.9835;-0.729492188;2.9835;0.609375;2.9835;2.073170662;2.9835;7.13414669;2.9835;0.243902445
0.206224138;1.46029E-05;0.206224138;6.54612E-06;2.99025;0.1171875;2.99025;-0.729492188;2.99025;0.607421875;2.99025;1.890243888;2.99025;7.560975552;2.99025;0.548780501
0.206689655;9.23171E-06;0.206689655;4.86763E-06;2.997;0.118164063;2.997;-0.737792969;2.997;0.604980469;2.997;2.073170662;2.997;7.62195158;2.997;0.731707335
0.207155172;3.86053E-06;0.207155172;7.72107E-06;3.00375;0.118164063;3.00375;-0.738769531;3.00375;0.607421875;3.00375;2.134146452;3.00375;7.560975552;3.00375;0.975609779
0.20762069;1.17494E-06;0.20762069;1.29244E-05;3.0105;0.119140625;3.0105;-0.742675781;3.0105;0.607421875;3.0105;2.317073107;3.0105;7.804878235;3.0105;1.097561002
0.208086207;-6.71397E-07;0.208086207;1.52743E-05;3.01725;0.125;3.01725;-0.743164063;3.01725;0.603515625;3.01725;2.073170662;3.01725;7.98780489;3.01725;1.097561002
0.208551724;-4.86763E-06;0.208551724;1.02388E-05;3.024;0.123046875;3.024;-0.744140625;3.024;0.604492188;3.024;2.195122004;3.024;8.048780441;3.024;1.341463447
0.209017241;-9.56741E-06;0.209017241;-1.17494E-06;3.03075;0.126953125;3.03075;-0.743652344;3.03075;0.601074219;3.03075;2.378048897;3.03075;8.231707573;3.03075;1.341463447
0.209482759;-1.30922E-05;0.209482759;-1.05745E-05;3.0375;0.121582031;3.0375;-0.743164063;3.0375;0.602539063;3.0375;2.621951342;3.0375;8.292682648;3.0375;1.341463447
0.209948276;-1.37636E-05;0.209948276;-8.89601E-06;3.04425;0.119628906;3.04425;-0.737792969;3.04425;0.597167969;3.04425;2.621951342;3.04425;8.414634705;3.04425;1.280487776
0.210413793;-1.05745E-05;0.210413793;-8.39246E-07;3.051;0.120605469;3.051;-0.739746094;3.051;0.598632813;3.051;2.743902445;3.051;8.780488014;3.051;1.219512224
0.21087931;-3.86053E-06;0.21087931;3.18914E-06;3.05775;0.119140625;3.05775;-0.740234375;3.05775;0.599609375;3.05775;2.865853786;3.05775;9.146341324;3.05775;1.158536553
0.211344828;2.85344E-06;0.211344828;3.69268E-06;3.0645;0.118652344;3.0645;-0.743652344;3.0645;0.59765625;3.0645;3.109756231;3.0645;9.329268456;3.0645;1.158536553
0.211810345;8.22461E-06;0.211810345;7.55322E-06;3.07125;0.119140625;3.07125;-0.752441406;3.07125;0.599609375;3.07125;3.475609779;3.07125;9.512195587;3.07125;1.219512224
0.212275862;1.12459E-05;0.212275862;1.32601E-05;3.078;0.118652344;3.078;-0.756347656;3.078;0.599121094;3.078;3.719512224;3.078;9.756097794;3.078;0.975609779
0.212741379;1.25887E-05;0.212741379;1.561E-05;3.08475;0.120605469;3.08475;-0.760742188;3.08475;0.600585938;3.08475;4.329268456;3.08475;9.756097794;3.08475;1.036585331
0.213206897;1.39315E-05;0.213206897;1.39315E-05;3.0915;0.118164063;3.0915;-0.759277344;3.0915;0.596679688;3.0915;4.634146214;3.0915;9.63414669;3.0915;0.914634168
0.213672414;1.35958E-05;0.213672414;1.19173E-05;3.09825;0.119140625;3.09825;-0.760253906;3.09825;0.593261719;3.09825;4.878048897;3.09825;9.63414669;3.09825;0.548780501
0.214137931;1.17494E-05;0.214137931;1.10781E-05;3.105;0.12109375;3.105;-0.762207031;3.105;0.589355469;3.105;5.365853786;3.105;9.451219559;3.105;0.548780501
0.214603448;8.56031E-06;0.214603448;1.24208E-05;3.11175;0.115234375;3.11175;-0.759765625;3.11175;0.588378906;3.11175;5.548780441;3.11175;9.146341324;3.11175;0.792682946
0.215068966;7.04967E-06;0.215068966;1.42672E-05;3.1185;0.112792969;3.1185;-0.762207031;3.1185;0.590820313;3.1185;5.792683125;3.1185;9.207317352;3.1185;1.036585331
0.215534483;8.56031E-06;0.215534483;1.4435E-05;3.12525;0.109375;3.12525;-0.76171875;3.12525;0.58984375;3.12525;5.975609779;3.12525;8.902439117;3.12525;1.341463447
0.216;1.12459E-05;0.216;1.4435E-05;3.132;0.106933594;3.132;-0.762695313;3.132;0.590332031;3.132;6.158536911;3.132;9.024390221;3.132;1.280487776
0.216465517;1.25887E-05;0.216465517;1.52743E-05;3.13875;0.110839844;3.13875;-0.765136719;3.13875;0.592773438;3.13875;6.768292904;3.13875;9.329268456;3.13875;1.280487776
0.216931034;1.37636E-05;0.216931034;1.69528E-05;3.1455;0.112304688;3.1455;-0.768066406;3.1455;0.591796875;3.1455;6.829268456;3.1455;9.451219559;3.1455;0.975609779
0.217396552;1.25887E-05;0.217396552;1.52743E-05;3.15225;0.113769531;3.15225;-0.771484375;3.15225;0.59375;3.15225;7.195122242;3.15225;9.63414669;3.15225;0.731707335
0.217862069;1.09102E-05;0.217862069;1.32601E-05;3.159;0.118164063;3.159;-0.771972656;3.159;0.59765625;3.159;7.743902683;3.159;9.573170662;3.159;0.731707335
0.218327586;1.2253E-05;0.218327586;1.40993E-05;3.16575;0.121582031;3.16575;-0.770019531;3.16575;0.595703125;3.16575;8.353658676;3.16575;9.573170662;3.16575;0.914634168
0.218793103;1.35958E-05;0.218793103;1.561E-05;3.1725;0.116210938;3.1725;-0.770996094;3.1725;0.594726563;3.1725;8.902439117;3.1725;9.451219559;3.1725;1.158536553
0.219258621;1.2253E-05;0.219258621;1.49386E-05;3.17925;0.110351563;3.17925;-0.768066406;3.17925;0.595703125;3.17925;9.329268456;3.17925;9.512195587;3.17925;1.097561002
0.219724138;1.09102E-05;0.219724138;9.9031E-06;3.186;0.111816406;3.186;-0.762695313;3.186;0.591796875;3.186;9.695121765;3.186;9.756097794;3.186;0.670731723
0.220189655;1.12459E-05;0.220189655;2.85344E-06;3.19275;0.110351563;3.19275;-0.746582031;3.19275;0.591796875;3.19275;10.30487823;3.19275;10.30487823;3.19275;0.670731723
0.220655172;1.12459E-05;0.220655172;-2.85344E-06;3.1995;0.108886719;3.1995;-0.742675781;3.1995;0.592773438;3.1995;10.7926836;3.1995;10.54878044;3.1995;0.914634168
0.22112069;1.15816E-05;0.22112069;-4.53193E-06;3.20625;0.109863281;3.20625;-0.741699219;3.20625;0.598144531;3.20625;11.09756088;3.20625;10.73170757;3.20625;1.341463447
0.221586207;1.25887E-05;0.221586207;-5.53903E-06;3.213;0.108886719;3.213;-0.748046875;3.213;0.598144531;3.213;11.46341515;3.213;10.67073154;3.213;1.890243888
0.222051724;1.46029E-05;0.222051724;-4.86763E-06;3.21975;0.111328125;3.21975;-0.751464844;3.21975;0.599121094;3.21975;12.01219559;3.21975;10.60975647;3.21975;2.073170662
0.222517241;1.59457E-05;0.222517241;-2.18204E-06;3.2265;0.11328125;3.2265;-0.756835938;3.2265;0.597167969;3.2265;12.5;3.2265;10.48780537;3.2265;1.951219559
0.222982759;1.59457E-05;0.222982759;1.17494E-06;3.23325;0.112792969;3.23325;-0.766113281;3.23325;0.59375;3.23325;12.68292713;3.23325;10.67073154;3.23325;1.890243888
0.223448276;1.561E-05;0.223448276;3.18914E-06;3.24;0.111816406;3.24;-0.770996094;3.24;0.592773438;3.24;13.4146347;3.24;10.48780537;3.24;2.134146452
0.223913793;1.32601E-05;0.223913793;4.36408E-06;3.24675;0.110351563;3.24675;-0.770507813;3.24675;0.591308594;3.24675;13.84146404;3.24675;10.36585426;3.24675;1.951219559
0.22437931;1.19173E-05;0.22437931;4.69978E-06;3.2535;0.107421875;3.2535;-0.765625;3.2535;0.59375;3.2535;14.51219559;3.2535;10.1219511;3.2535;1.585365891
0.224844828;1.25887E-05;0.224844828;4.53193E-06;3.26025;0.10546875;3.26025;-0.760742188;3.26025;0.6015625;3.26025;15.6707325;3.26025;9.756097794;3.26025;1.402438998
0.225310345;1.59457E-05;0.225310345;6.21042E-06;3.267;0.100585938;3.267;-0.753417969;3.267;0.6015625;3.267;16.52439117;3.267;9.207317352;3.267;1.280487776
0.225775862;1.91348E-05;0.225775862;8.56031E-06;3.27375;0.096191406;3.27375;-0.751953125;3.27375;0.602539063;3.27375;17.56097603;3.27375;8.658536911;3.27375;1.524390221
0.226241379;1.98062E-05;0.226241379;1.09102E-05;3.2805;0.096191406;3.2805;-0.75390625;3.2805;0.599121094;3.2805;18.71951294;3.2805;8.292682648;3.2805;1.829268336
0.226706897;1.76242E-05;0.226706897;1.12459E-05;3.28725;0.102050781;3.28725;-0.758789063;3.28725;0.598144531;3.28725;19.75609779;3.28725;8.170731544;3.28725;1.890243888
0.227172414;1.52743E-05;0.227172414;1.02388E-05;3.294;0.102050781;3.294;-0.763671875;3.294;0.596679688;3.294;20.60975647;3.294;7.560975552;3.294;1.646341443
0.227637931;1.32601E-05;0.227637931;8.89601E-06;3.30075;0.1015625;3.30075;-0.765625;3.30075;0.595703125;3.30075;21.64634132;3.30075;7.62195158;3.30075;1.402438998
0.228103448;1.10781E-05;0.228103448;7.04967E-06;3.3075;0.104980469;3.3075;-0.771484375;3.3075;0.590820313;3.3075;22.13414764;3.3075;7.682927132;3.3075;1.036585331
0.228568966;9.23171E-06;0.228568966;5.87472E-06;3.31425;0.104980469;3.31425;-0.773925781;3.31425;0.584960938;3.31425;23.4146347;3.31425;7.317073345;3.31425;0.731707335
0.229034483;7.88891E-06;0.229034483;4.86763E-06;3.321;0.102539063;3.321;-0.774414063;3.321;0.580078125;3.321;24.81707382;3.321;6.707317352;3.321;0.48780489
0.2295;5.87472E-06;0.2295;4.53193E-06;3.32775;0.106445313;3.32775;-0.774414063;3.32775;0.578613281;3.32775;26.52439117;3.32775;5.853658676;3.32775;0
0.229965517;3.18914E-06;0.229965517;3.52483E-06;3.3345;0.106445313;3.3345;-0.773925781;3.3345;0.579589844;3.3345;27.92683029;3.3345;5.426829338;3.3345;-0.304878056
0.230431034;1.17494E-06;0.230431034;1.17494E-06;3.34125;0.102539063;3.34125;-0.770019531;3.34125;0.582519531;3.34125;29.02439117;3.34125;4.817073345;3.34125;-0.670731723
0.230896552;6.71397E-07;0.230896552;1.17494E-06;3.348;0.09765625;3.348;-0.778808594;3.348;0.584472656;3.348;30.12195206;3.348;4.878048897;3.348;-0.426829278
0.231362069;5.03548E-07;0.231362069;4.53193E-06;3.35475;0.118652344;3.35475;-0.784667969;3.35475;0.581054688;3.35475;35.06097794;3.35475;4.024390221;3.35475;2.195122004
0.231827586;1.67849E-07;0.231827586;8.56031E-06;3.3615;0.119628906;3.3615;-0.801757813;3.3615;0.564453125;3.3615;34.02439117;3.3615;4.634146214;3.3615;1.768292665
0.232293103;-8.39246E-07;0.232293103;9.23171E-06;3.36825;0.118164063;3.36825;-0.807128906;3.36825;0.565917969;3.36825;34.32926941;3.36825;4.756097794;3.36825;1.524390221
0.232758621;-5.03548E-07;0.232758621;7.21752E-06;3.375;0.12109375;3.375;-0.8046875;3.375;0.555664063;3.375;35.79268265;3.375;5.548780441;3.375;1.097561002
0.233224138;1.84634E-06;0.233224138;3.86053E-06;3.38175;0.123535156;3.38175;-0.806640625;3.38175;0.548339844;3.38175;36.341465;3.38175;6.036585331;3.38175;0.548780501
0.233689655;4.36408E-06;0.233689655;2.51774E-06;3.3885;0.120117188;3.3885;-0.804199219;3.3885;0.541015625;3.3885;38.04878235;3.3885;6.402439117;3.3885;0
0.234155172;2.51774E-06;0.234155172;1.17494E-06;3.39525;0.117675781;3.39525;-0.802734375;3.39525;0.537109375;3.39525;40.12195206;3.39525;6.524390221;3.39525;0
0.23462069;-2.18204E-06;0.23462069;-3.52483E-06;3.402;0.111816406;3.402;-0.802246094;3.402;0.528320313;3.402;42.19512177;3.402;6.463414669;3.402;0.121951222
0.235086207;-6.54612E-06;0.235086207;-8.56031E-06;3.40875;0.116699219;3.40875;-0.799804688;3.40875;0.521484375;3.40875;44.0853653;3.40875;6.524390221;3.40875;-0.060975611
0.235551724;-7.88891E-06;0.235551724;-1.09102E-05;3.4155;0.115234375;3.4155;-0.807128906;3.4155;0.510253906;3.4155;46.46341705;3.4155;6.524390221;3.4155;-0.548780501
0.236017241;-7.21752E-06;0.236017241;-1.09102E-05;3.42225;0.115722656;3.42225;-0.819824219;3.42225;0.489257813;3.42225;49.45122147;3.42225;6.768292904;3.42225;-0.853658557
0.236482759;-8.22461E-06;0.236482759;-8.22461E-06;3.429;0.112304688;3.429;-0.829101563;3.429;0.473632813;3.429;52.62195206;3.429;6.890244007;3.429;-1.158536553
0.236948276;-8.39246E-06;0.236948276;-3.52483E-06;3.43575;0.105957031;3.43575;-0.832519531;3.43575;0.459960938;3.43575;55.79268265;3.43575;7.01219511;3.43575;-1.158536553
0.237413793;-9.9031E-06;0.237413793;-1.0071E-06;3.4425;0.10546875;3.4425;-0.833984375;3.4425;0.451171875;3.4425;58.65853882;3.4425;7.439024448;3.4425;-1.890243888
0.23787931;-1.29244E-05;0.23787931;5.03548E-07;3.44925;0.101074219;3.44925;-0.8359375;3.44925;0.448730469;3.44925;61.58536911;3.44925;8.597560883;3.44925;-2.256097555
0.238344828;-1.32601E-05;0.238344828;3.52483E-06;3.456;0.106445313;3.456;-0.840332031;3.456;0.439453125;3.456;62.98780823;3.456;8.841464043;3.456;-2.5
0.238810345;-1.09102E-05;0.238810345;4.53193E-06;3.46275;0.107910156;3.46275;-0.845703125;3.46275;0.434570313;3.46275;66.03659058;3.46275;8.963415146;3.46275;-2.378048897
0.239275862;-5.53903E-06;0.239275862;4.36408E-06;3.4695;0.115234375;3.4695;-0.874023438;3.4695;0.430664063;3.4695;69.63414764;3.4695;9.329268456;3.4695;-1.707317114
0.239741379;8.39246E-07;0.239741379;5.87472E-06;3.47625;0.109375;3.47625;-0.883300781;3.47625;0.412109375;3.47625;73.84146881;3.47625;9.207317352;3.47625;-0.670731723
0.240206897;6.21042E-06;0.240206897;1.09102E-05;3.483;0.092285156;3.483;-0.869628906;3.483;0.404296875;3.483;78.4146347;3.483;9.63414669;3.483;1.402438998
0.240672414;1.05745E-05;0.240672414;1.46029E-05;3.48975;0.087890625;3.48975;-0.846679688;3.48975;0.40234375;3.48975;83.84146881;3.48975;10.36585426;3.48975;2.621951342
0.241137931;1.32601E-05;0.241137931;1.62814E-05;3.4965;0.083984375;3.4965;-0.827636719;3.4965;0.392578125;3.4965;89.63414764;3.4965;11.03658581;3.4965;3.719512224
0.241603448;1.40993E-05;0.241603448;1.59457E-05;3.50325;0.087890625;3.50325;-0.801269531;3.50325;0.384765625;3.50325;94.69512177;3.50325;11.34146404;3.50325;3.292682886
0.242068966;1.46029E-05;0.242068966;1.25887E-05;3.51;0.080078125;3.51;-0.775390625;3.51;0.381347656;3.51;99.0853653;3.51;11.40243912;3.51;2.682926893
0.242534483;1.46029E-05;0.242534483;5.20333E-06;3.51675;0.067382813;3.51675;-0.743652344;3.51675;0.371582031;3.51675;103.6585388;3.51675;11.76829338;3.51675;2.378048897
0.243;1.09102E-05;0.243;-2.85344E-06;3.5235;0.069824219;3.5235;-0.727050781;3.5235;0.366210938;3.5235;107.8658524;3.5235;11.34146404;3.5235;1.951219559
0.243465517;7.21752E-06;0.243465517;-9.56741E-06;3.53025;0.071777344;3.53025;-0.680664063;3.53025;0.351074219;3.53025;109.5121994;3.53025;10.67073154;3.53025;1.585365891
0.243931034;5.53903E-06;0.243931034;-9.9031E-06;3.537;0.069824219;3.537;-0.625;3.537;0.351074219;3.537;111.2195129;3.537;9.817073822;3.537;0.975609779
0.244396552;6.21042E-06;0.244396552;-6.21042E-06;3.54375;0.065429688;3.54375;-0.580566406;3.54375;0.357910156;3.54375;111.1585388;3.54375;9.085366249;3.54375;0.609756112
0.244862069;6.37827E-06;0.244862069;-2.51774E-06;3.5505;0.0625;3.5505;-0.534179688;3.5505;0.364257813;3.5505;110.9756088;3.5505;9.512195587;3.5505;0.853658557
0.245327586;5.87472E-06;0.245327586;2.18204E-06;3.55725;0.056152344;3.55725;-0.502929688;3.55725;0.373046875;3.55725;110.3048782;3.55725;10.06097603;3.55725;0.914634168
0.245793103;5.53903E-06;0.245793103;6.21042E-06;3.564;0.066894531;3.564;-0.482421875;3.564;0.362792969;3.564;111.2195129;3.564;8.902439117;3.564;1.158536553
0.246258621;7.72107E-06;0.246258621;7.55322E-06;3.57075;0.086425781;3.57075;-0.473632813;3.57075;0.370605469;3.57075;113.4146347;3.57075;8.658536911;3.57075;0.914634168
0.246724138;1.05745E-05;0.246724138;6.54612E-06;3.5775;0.095703125;3.5775;-0.448730469;3.5775;0.377929688;3.5775;115;3.5775;7.560975552;3.5775;-0.609756112
0.247189655;1.39315E-05;0.247189655;5.20333E-06;3.58425;0.092773438;3.58425;-0.421386719;3.58425;0.372070313;3.58425;116.646347;3.58425;6.768292904;3.58425;-1.219512224
0.247655172;1.52743E-05;0.247655172;1.84634E-06;3.591;0.086425781;3.591;-0.408691406;3.591;0.361328125;3.591;119.5731735;3.591;6.646341801;3.591;-2.621951342
0.24812069;1.62814E-05;0.24812069;-2.18204E-06;3.59775;0.076660156;3.59775;-0.403808594;3.59775;0.358886719;3.59775;121.5853653;3.59775;7.804878235;3.59775;-2.804877996
0.248586207;1.71206E-05;0.248586207;-4.19623E-06;3.6045;0.071289063;3.6045;-0.375488281;3.6045;0.345214844;3.6045;121.2804871;3.6045;8.719511986;3.6045;-3.231707335
0.249051724;1.66171E-05;0.249051724;-3.52483E-06;3.61125;0.051757813;3.61125;-0.350097656;3.61125;0.314941406;3.61125;120.5487823;3.61125;11.09756088;3.61125;-4.268292904
0.249517241;1.59457E-05;0.249517241;-1.67849E-06;3.618;0.057128906;3.618;-0.357421875;3.618;0.30859375;3.618;119.5121994;3.618;11.95121956;3.618;-5.304878235
0.249982759;1.561E-05;0.249982759;-1.84634E-06;3.62475;0.060058594;3.62475;-0.362792969;3.62475;0.380371094;3.62475;118.5975647;3.62475;12.25609779;3.62475;-5.365853786
0.250448276;1.62814E-05;0.250448276;-2.01419E-06;3.6315;0.044921875;3.6315;-0.345214844;3.6315;0.479980469;3.6315;121.3414688;3.6315;12.01219559;3.6315;-3.902439117
0.250913793;1.7792E-05;0.250913793;-1.67849E-07;3.63825;0.034179688;3.63825;-0.346191406;3.63825;0.552734375;3.63825;128.7195129;3.63825;8.536585808;3.63825;-3.658536673
0.25137931;1.96384E-05;0.25137931;3.86053E-06;3.645;0.015136719;3.645;-0.348632813;3.645;0.615722656;3.645;136.1585388;3.645;5.548780441;3.645;-4.695122242
0.251844828;1.82956E-05;0.251844828;6.88182E-06;3.65175;-0.003417969;3.65175;-0.292480469;3.65175;0.640625;3.65175;139.4512177;3.65175;2.98780489;3.65175;-7.5
0.252310345;1.62814E-05;0.252310345;6.88182E-06;3.6585;-0.015625;3.6585;-0.190917969;3.6585;0.64453125;3.6585;135.9756165;3.6585;0.792682946;3.6585;-10.67073154
0.252775862;1.59457E-05;0.252775862;5.87472E-06;3.66525;0.002441406;3.66525;-0.078125;3.66525;0.626953125;3.66525;129.5121918;3.66525;-1.524390221;3.66525;-12.80487823
0.253241379;1.7792E-05;0.253241379;5.87472E-06;3.672;0.020507813;3.672;-0.030761719;3.672;0.624511719;3.672;123.2926865;3.672;-1.707317114;3.672;-13.90243912
0.253706897;1.79599E-05;0.253706897;5.87472E-06;3.67875;0.052246094;3.67875;0.048339844;3.67875;0.607910156;3.67875;120.6707382;3.67875;-2.317073107;3.67875;-13.2926836
0.254172414;1.72885E-05;0.254172414;5.87472E-06;3.6855;0.070800781;3.6855;0.064453125;3.6855;0.578613281;3.6855;120.7926865;3.6855;-3.902439117;3.6855;-10.85365868
0.254637931;1.82956E-05;0.254637931;6.88182E-06;3.69225;0.115234375;3.69225;0.020507813;3.69225;0.566894531;3.69225;127.8048782;3.69225;-7.62195158;3.69225;-8.170731544
0.255103448;1.8967E-05;0.255103448;7.88891E-06;3.699;0.146484375;3.699;-0.038574219;3.699;0.553710938;3.699;134.8780518;3.699;-6.036585331;3.699;-7.926829338
0.255568966;1.79599E-05;0.255568966;7.55322E-06;3.70575;0.171386719;3.70575;-0.070800781;3.70575;0.555175781;3.70575;138.7804871;3.70575;-4.939024448;3.70575;-7.62195158
0.256034483;1.59457E-05;0.256034483;5.53903E-06;3.7125;0.162597656;3.7125;-0.071777344;3.7125;0.573730469;3.7125;140.1829376;3.7125;-4.817073345;3.7125;-7.13414669
0.2565;1.46029E-05;0.2565;4.86763E-06;3.71925;0.145019531;3.71925;-0.037109375;3.71925;0.586425781;3.71925;139.3292694;3.71925;-4.390244007;3.71925;-7.560975552
0.256965517;1.42672E-05;0.256965517;5.53903E-06;3.726;0.120605469;3.726;-0.000976563;3.726;0.63671875;3.726;135;3.726;-3.292682886;3.726;-7.073170662
0.257431034;1.561E-05;0.257431034;5.70687E-06;3.73275;0.100585938;3.73275;0.006835938;3.73275;0.742675781;3.73275;130.6707306;3.73275;0.365853667;3.73275;-6.219512463
0.257896552;1.72885E-05;0.257896552;5.53903E-06;3.7395;0.083496094;3.7395;0.007324219;3.7395;0.811523438;3.7395;128.2317047;3.7395;1.829268336;3.7395;-7.13414669
0.258362069;1.69528E-05;0.258362069;4.53193E-06;3.74625;0.07421875;3.74625;0.014648438;3.74625;0.821777344;3.74625;127.2561035;3.74625;2.804877996;3.74625;-8.292682648
0.258827586;1.32601E-05;0.258827586;3.18914E-06;3.753;0.076660156;3.753;0.037597656;3.753;0.792480469;3.753;126.0975647;3.753;2.621951342;3.753;-9.451219559
0.259293103;8.89601E-06;0.259293103;1.67849E-06;3.75975;0.075683594;3.75975;0.079101563;3.75975;0.764648438;3.75975;121.8292694;3.75975;2.865853786;3.75975;-10.7926836
0.259758621;7.21752E-06;0.259758621;3.18914E-06;3.7665;0.075195313;3.7665;0.11328125;3.7665;0.778808594;3.7665;118.9024429;3.7665;1.707317114;3.7665;-10.85365868
0.260224138;8.56031E-06;0.260224138;4.36408E-06;3.77325;0.083984375;3.77325;0.134765625;3.77325;0.772460938;3.77325;122.7439041;3.77325;0.060975611;3.77325;-10
0.260689655;1.02388E-05;0.260689655;3.86053E-06;3.78;0.09765625;3.78;0.134765625;3.78;0.765136719;3.78;124.3292694;3.78;-1.524390221;3.78;-7.98780489
0.261155172;8.89601E-06;0.261155172;3.86053E-06;3.78675;0.126464844;3.78675;0.111328125;3.78675;0.766601563;3.78675;120.1219559;3.78675;-2.804877996;3.78675;-5.609755993
0.26162069;6.54612E-06;0.26162069;5.87472E-06;3.7935;0.158203125;3.7935;0.126953125;3.7935;0.75;3.7935;117.68293;3.7935;-2.01219511;3.7935;-3.963414669
0.262086207;5.87472E-06;0.262086207;6.54612E-06;3.80025;0.166015625;3.80025;0.163574219;3.80025;0.6953125;3.80025;116.0365906;3.80025;-1.463414669;3.80025;-3.048780441
0.262551724;4.53193E-06;0.262551724;6.88182E-06;3.807;0.166503906;3.807;0.234863281;3.807;0.63671875;3.807;113.5365906;3.807;1.463414669;3.807;-2.378048897
0.263017241;3.18914E-06;0.263017241;5.87472E-06;3.81375;0.165527344;3.81375;0.28515625;3.81375;0.604003906;3.81375;113.1707306;3.81375;3.902439117;3.81375;-1.524390221
0.263482759;5.20333E-06;0.263482759;6.88182E-06;3.8205;0.157226563;3.8205;0.297363281;3.8205;0.579589844;3.8205;117.3780518;3.8205;5.121951103;3.8205;-0.792682946
0.263948276;7.88891E-06;0.263948276;1.02388E-05;3.82725;0.145996094;3.82725;0.308105469;3.82725;0.542480469;3.82725;119.3292694;3.82725;6.707317352;3.82725;-0.914634168
0.264413793;8.56031E-06;0.264413793;1.32601E-05;3.834;0.12890625;3.834;0.316894531;3.834;0.538085938;3.834;120.2439041;3.834;10.18292713;3.834;-2.621951342
0.26487931;8.89601E-06;0.26487931;1.42672E-05;3.84075;0.103027344;3.84075;0.307617188;3.84075;0.553710938;3.84075;121.7073212;3.84075;13.35365868;3.84075;-5.731707573
0.265344828;9.56741E-06;0.265344828;1.64492E-05;3.8475;0.087402344;3.8475;0.296386719;3.8475;0.558105469;3.8475;125.5487823;3.8475;13.17073154;3.8475;-8.292682648
0.265810345;8.72816E-06;0.265810345;1.99741E-05;3.85425;0.075195313;3.85425;0.309082031;3.85425;0.623535156;3.85425;128.4756165;3.85425;12.3780489;3.85425;-10
0.266275862;3.86053E-06;0.266275862;1.96384E-05;3.861;0.07421875;3.861;0.328125;3.861;0.750976563;3.861;125.9756165;3.861;12.74390316;3.861;-9.817073822
0.266741379;-6.71397E-07;0.266741379;1.62814E-05;3.86775;0.091796875;3.86775;0.311035156;3.86775;0.765625;3.86775;124.3292694;3.86775;9.817073822;3.86775;-7.804878235
0.267206897;-1.84634E-06;0.267206897;1.2253E-05;3.8745;0.132324219;3.8745;0.255371094;3.8745;0.713867188;3.8745;121.8902435;3.8745;7.317073345;3.8745;-4.695122242
0.267672414;8.39246E-07;0.267672414;1.05745E-05;3.88125;0.168457031;3.88125;0.214355469;3.88125;0.718261719;3.88125;112.6219559;3.88125;9.085366249;3.88125;-2.560975552
0.268137931;2.85344E-06;0.268137931;1.32601E-05;3.888;0.166992188;3.888;0.2421875;3.888;0.708496094;3.888;102.6219559;3.888;10.73170757;3.888;1.097561002
0.268603448;2.18204E-06;0.268603448;1.561E-05;3.89475;0.169433594;3.89475;0.258300781;3.89475;0.678710938;3.89475;98.4146347;3.89475;8.902439117;3.89475;4.207317352
0.269068966;-1.51064E-06;0.269068966;1.32601E-05;3.9015;0.179199219;3.9015;0.26953125;3.9015;0.62109375;3.9015;100.2439041;3.9015;8.780488014;3.9015;5
0.269534483;-5.20333E-06;0.269534483;7.21752E-06;3.90825;0.161621094;3.90825;0.309082031;3.90825;0.666015625;3.90825;106.4024429;3.90825;10.48780537;3.90825;3.109756231
0.27;-6.88182E-06;0.27;4.69978E-06;3.915;0.149414063;3.915;0.377929688;3.915;0.717773438;3.915;114.0243912;3.915;13.71951294;3.915;0.121951222
0.270465517;-5.20333E-06;0.270465517;9.23171E-06;3.92175;0.143554688;3.92175;0.441894531;3.92175;0.712890625;3.92175;118.1097565;3.92175;16.52439117;3.92175;-1.463414669
0.270931034;-3.52483E-06;0.270931034;2.1149E-05;3.9285;0.123046875;3.9285;0.502441406;3.9285;0.725097656;3.9285;118.4146347;3.9285;18.23170853;3.9285;-2.743902445
0.271396552;-2.18204E-06;0.271396552;3.13878E-05;3.93525;0.087402344;3.93525;0.580078125;3.93525;0.736328125;3.93525;117.3780518;3.93525;21.70731735;3.93525;-5.121951103
0.271862069;-8.39246E-07;0.271862069;3.45769E-05;3.942;0.053222656;3.942;0.619628906;3.942;0.733398438;3.942;114.2073212;3.942;22.31707382;3.942;-6.829268456
0.272327586;-1.67849E-07;0.272327586;3.20592E-05;3.94875;0.05078125;3.94875;0.594238281;3.94875;0.719238281;3.94875;113.4146347;3.94875;18.1707325;3.94875;-4.451219559
0.272793103;-8.39246E-07;0.272793103;2.73594E-05;3.9555;0.041015625;3.9555;0.561523438;3.9555;0.736328125;3.9555;112.7439041;3.9555;18.78048897;3.9555;-2.378048897
0.273258621;-4.53193E-06;0.273258621;1.7792E-05;3.96225;0.02734375;3.96225;0.571777344;3.96225;0.772460938;3.96225;110.5487823;3.96225;19.87804985;3.96225;-1.036585331
0.273724138;-7.72107E-06;0.273724138;6.54612E-06;3.969;0.02734375;3.969;0.567382813;3.969;0.787109375;3.969;109.146347;3.969;19.32926941;3.969;-1.097561002
0.274189655;-8.22461E-06;0.274189655;-1.51064E-06;3.97575;0.053222656;3.97575;0.51953125;3.97575;0.791992188;3.97575;110;3.97575;16.5853653;3.97575;-0.731707335
0.274655172;-6.88182E-06;0.274655172;-5.53903E-06;3.9825;0.083007813;3.9825;0.479980469;3.9825;0.788085938;3.9825;110.7926865;3.9825;11.21951199;3.9825;0.548780501
0.27512069;-5.53903E-06;0.27512069;-4.86763E-06;3.98925;0.114257813;3.98925;0.486328125;3.98925;0.791015625;3.98925;106.9512253;3.98925;9.878048897;3.98925;1.829268336
0.275586207;-2.85344E-06;0.275586207;-3.02129E-06;3.996;0.139160156;3.996;0.49609375;3.996;0.770996094;3.996;102.0731735;3.996;9.878048897;3.996;1.646341443
0.276051724;1.67849E-06;0.276051724;-1.51064E-06;4.00275;0.171386719;4.00275;0.54296875;4.00275;0.801269531;4.00275;103.2317123;4.00275;8.475609779;4.00275;1.585365891
0.276517241;4.19623E-06;0.276517241;8.39246E-07;4.0095;0.182617188;4.0095;0.625488281;4.0095;0.821777344;4.0095;107.3780518;4.0095;7.62195158;4.0095;1.890243888
0.276982759;6.88182E-06;0.276982759;1.84634E-06;4.01625;0.176269531;4.01625;0.672363281;4.01625;0.830078125;4.01625;110.5487823;4.01625;7.378048897;4.01625;1.524390221
0.277448276;1.05745E-05;0.277448276;3.18914E-06;4.023;0.164550781;4.023;0.742675781;4.023;0.883300781;4.023;110.7317123;4.023;10.1219511;4.023;-0.792682946
0.277913793;1.17494E-05;0.277913793;3.86053E-06;4.02975;0.161132813;4.02975;0.825195313;4.02975;0.909179688;4.02975;109.3902435;4.02975;12.3780489;4.02975;-3.536585331
0.27837931;9.9031E-06;0.27837931;4.53193E-06;4.0365;0.141601563;4.0365;0.836425781;4.0365;0.88671875;4.0365;107.4390259;4.0365;15.30487823;4.0365;-5.48780489
0.278844828;7.21752E-06;0.278844828;6.21042E-06;4.04325;0.143554688;4.04325;0.818847656;4.04325;0.883789063;4.04325;106.9512253;4.04325;18.1707325;4.04325;-6.158536911
0.279310345;5.87472E-06;0.279310345;6.21042E-06;4.05;0.143554688;4.05;0.815429688;4.05;0.9375;4.05;106.7073212;4.05;19.63414764;4.05;-6.036585331
0.279775862;5.53903E-06;0.279775862;3.52483E-06;4.05675;0.144042969;4.05675;0.79296875;4.05675;0.930664063;4.05675;105.9756088;4.05675;19.51219559;4.05675;-4.207317352
0.280241379;5.87472E-06;0.280241379;2.34989E-06;4.0635;0.139648438;4.0635;0.723632813;4.0635;0.878417969;4.0635;103.7195129;4.0635;16.46341515;4.0635;-2.804877996
0.280706897;6.21042E-06;0.280706897;2.85344E-06;4.07025;0.123046875;4.07025;0.724121094;4.07025;0.866210938;4.07025;101.1585388;4.07025;13.2926836;4.07025;-1.829268336
0.281172414;6.54612E-06;0.281172414;2.18204E-06;4.077;0.116699219;4.077;0.798339844;4.077;0.879882813;4.077;99.63414764;4.077;10.9146347;4.077;-0.792682946
0.281637931;7.21752E-06;0.281637931;2.51774E-06;4.08375;0.1015625;4.08375;0.816894531;4.08375;0.83984375;4.08375;99.20732117;4.08375;9.451219559;4.08375;-1.036585331
0.282103448;8.39246E-06;0.282103448;3.18914E-06;4.0905;0.083007813;4.0905;0.812011719;4.0905;0.831542969;4.0905;98.5975647;4.0905;9.573170662;4.0905;-3.231707335
0.282568966;1.05745E-05;0.282568966;2.51774E-06;4.09725;0.083007813;4.09725;0.829101563;4.09725;0.855957031;4.09725;99.14634705;4.09725;10.67073154;4.09725;-3.963414669
0.283034483;1.12459E-05;0.283034483;1.84634E-06;4.104;0.092773438;4.104;0.87890625;4.104;0.899902344;4.104;101.8292694;4.104;12.13414669;4.104;-5.670732021
0.2835;1.04067E-05;0.2835;5.03548E-07;4.11075;0.095214844;4.11075;0.924316406;4.11075;0.918945313;4.11075;103.9024429;4.11075;12.68292713;4.11075;-6.158536911
0.283965517;9.9031E-06;0.283965517;1.67849E-07;4.1175;0.091308594;4.1175;0.929199219;4.1175;0.919433594;4.1175;105.18293;4.1175;13.35365868;4.1175;-5.548780441
0.284431034;1.05745E-05;0.284431034;1.17494E-06;4.12425;0.112792969;4.12425;0.925292969;4.12425;0.932128906;4.12425;105.4878082;4.12425;14.02439022;4.12425;-5.182927132
0.284896552;1.05745E-05;0.284896552;1.17494E-06;4.131;0.174316406;4.131;0.91796875;4.131;0.953613281;4.131;106.8902435;4.131;14.69512272;4.131;-5.365853786
0.285362069;1.05745E-05;0.285362069;5.03548E-07;4.13775;0.202636719;4.13775;0.9140625;4.13775;0.951171875;4.13775;107.5609818;4.13775;12.74390316;4.13775;-2.378048897
0.285827586;1.19173E-05;0.285827586;3.35698E-07;4.1445;0.193359375;4.1445;0.893066406;4.1445;0.8828125;4.1445;104.8170776;4.1445;9.878048897;4.1445;2.134146452
0.286293103;1.19173E-05;0.286293103;-1.67849E-07;4.15125;0.178222656;4.15125;0.889648438;4.15125;0.837402344;4.15125;97.68292999;4.15125;6.829268456;4.15125;6.219512463
0.286758621;1.17494E-05;0.286758621;-1.67849E-07;4.158;0.153808594;4.158;0.864746094;4.158;0.787597656;4.158;89.57317352;4.158;4.451219559;4.158;7.804878235
0.287224138;1.19173E-05;0.287224138;-1.67849E-07;4.16475;0.130859375;4.16475;0.840820313;4.16475;0.741210938;4.16475;82.92683411;4.16475;3.841463566;4.16475;7.804878235
0.287689655;1.25887E-05;0.287689655;1.67849E-07;4.1715;0.131347656;4.1715;0.855957031;4.1715;0.73046875;4.1715;79.45121765;4.1715;4.024390221;4.1715;8.10975647
0.288155172;1.30922E-05;0.288155172;1.67849E-07;4.17825;0.145019531;4.17825;0.892089844;4.17825;0.732421875;4.17825;81.34146881;4.17825;5.731707573;4.17825;5.548780441
0.28862069;1.19173E-05;0.28862069;3.35698E-07;4.185;0.166503906;4.185;0.918945313;4.185;0.741210938;4.185;87.74390411;4.185;8.10975647;4.185;1.341463447
0.289086207;9.23171E-06;0.289086207;-1.67849E-07;4.19175;0.177246094;4.19175;0.9453125;4.19175;0.752441406;4.19175;93.78048706;4.19175;12.98780537;4.19175;-2.682926893
0.289551724;7.21752E-06;0.289551724;-8.39246E-07;4.1985;0.157714844;4.1985;1.017089844;4.1985;0.772949219;4.1985;95.30487823;4.1985;14.02439022;4.1985;-3.597561121
0.290017241;7.04967E-06;0.290017241;8.39246E-07;4.20525;0.136230469;4.20525;1.044433594;4.20525;0.762207031;4.20525;94.39024353;4.20525;14.75609779;4.20525;-2.926829338
0.290482759;7.21752E-06;0.290482759;2.51774E-06;4.212;0.09765625;4.212;1.028808594;4.212;0.775878906;4.212;90.24390411;4.212;14.26829338;4.212;-2.073170662
0.290948276;7.72107E-06;0.290948276;2.34989E-06;4.21875;0.091796875;4.21875;0.994628906;4.21875;0.776367188;4.21875;87.92683411;4.21875;13.84146404;4.21875;-1.219512224
0.291413793;7.72107E-06;0.291413793;8.39246E-07;4.2255;0.112792969;4.2255;0.9140625;4.2255;0.75;4.2255;88.47560883;4.2255;14.81707382;4.2255;-2.5
0.29187931;8.72816E-06;0.29187931;-2.01419E-06;4.23225;0.145507813;4.23225;0.88671875;4.23225;0.729980469;4.23225;87.25609589;4.23225;15.06097603;4.23225;-2.621951342
0.292344828;9.9031E-06;0.292344828;-4.53193E-06;4.239;0.134765625;4.239;0.864746094;4.239;0.723632813;4.239;81.52439117;4.239;14.51219559;4.239;-1.402438998
0.292810345;1.15816E-05;0.292810345;-4.19623E-06;4.24575;0.133789063;4.24575;0.851074219;4.24575;0.728515625;4.24575;76.52439117;4.24575;13.10975647;4.24575;-0.731707335
0.293275862;1.19173E-05;0.293275862;-2.01419E-06;4.2525;0.131347656;4.2525;0.864746094;4.2525;0.704589844;4.2525;72.13414764;4.2525;11.21951199;4.2525;-0.060975611
0.293741379;9.56741E-06;0.293741379;-5.03548E-07;4.25925;0.146972656;4.25925;0.893554688;4.25925;0.681152344;4.25925;65.97560883;4.25925;10.67073154;4.25925;1.585365891
0.294206897;7.55322E-06;0.294206897;-1.67849E-07;4.266;0.149902344;4.266;0.890625;4.266;0.671386719;4.266;62.56097794;4.266;10.1219511;4.266;3.414634228
0.294672414;7.88891E-06;0.294672414;1.17494E-06;4.27275;0.151855469;4.27275;0.925292969;4.27275;0.6796875;4.27275;61.95122147;4.27275;9.512195587;4.27275;4.329268456
0.295137931;8.89601E-06;0.295137931;1.17494E-06;4.2795;0.141113281;4.2795;0.965332031;4.2795;0.664550781;4.2795;63.10975647;4.2795;8.780488014;4.2795;5.060975552
0.295603448;9.23171E-06;0.295603448;-1.67849E-07;4.28625;0.125488281;4.28625;0.984375;4.28625;0.631835938;4.28625;66.40244293;4.28625;9.63414669;4.28625;3.536585331
0.296068966;8.22461E-06;0.296068966;1.17494E-06;4.293;0.123535156;4.293;1.030761719;4.293;0.613769531;4.293;69.32926941;4.293;11.46341515;4.293;0.731707335
0.296534483;7.21752E-06;0.296534483;3.86053E-06;4.29975;0.118652344;4.29975;1.036621094;4.29975;0.594238281;4.29975;71.82926941;4.29975;11.46341515;4.29975;-0.914634168
0.297;6.54612E-06;0.297;3.18914E-06;4.3065;0.109863281;4.3065;1.028808594;4.3065;0.59765625;4.3065;73.10975647;4.3065;14.51219559;4.3065;-4.634146214
0.297465517;5.87472E-06;0.297465517;3.52483E-06;4.31325;0.137695313;4.31325;1.025878906;4.31325;0.590820313;4.31325;70.97560883;4.31325;17.62195206;4.31325;-7.62195158
0.297931034;6.54612E-06;0.297931034;5.20333E-06;4.32;0.145996094;4.32;0.977539063;4.32;0.570800781;4.32;67.62195587;4.32;16.5853653;4.32;-6.219512463
0.298396552;9.56741E-06;0.298396552;5.20333E-06;4.32675;0.125;4.32675;0.944824219;4.32675;0.590332031;4.32675;65;4.32675;16.21951294;4.32675;-4.939024448
0.298862069;1.25887E-05;0.298862069;3.18914E-06;4.3335;0.135742188;4.3335;0.93359375;4.3335;0.594726563;4.3335;63.841465;4.3335;14.8780489;4.3335;-4.390244007
0.299327586;1.51064E-05;0.299327586;1.84634E-06;4.34025;0.139648438;4.34025;0.931640625;4.34025;0.588378906;4.34025;61.52439117;4.34025;13.23170757;4.34025;-3.597561121
0.299793103;1.46029E-05;0.299793103;1.17494E-06;4.347;0.123535156;4.347;0.920410156;4.347;0.578613281;4.347;58.53658676;4.347;11.95121956;4.347;-2.560975552
0.300258621;1.25887E-05;0.300258621;1.17494E-06;4.35375;0.106445313;4.35375;0.900390625;4.35375;0.572265625;4.35375;51.21951294;4.35375;9.573170662;4.35375;-1.402438998
0.300724138;1.19173E-05;0.300724138;2.34989E-06;4.3605;0.108398438;4.3605;0.90234375;4.3605;0.596679688;4.3605;44.93902588;4.3605;8.597560883;4.3605;-1.463414669
0.301189655;1.19173E-05;0.301189655;4.86763E-06;4.36725;0.123046875;4.36725;0.91796875;4.36725;0.601074219;4.36725;41.40243912;4.36725;9.756097794;4.36725;-2.195122004
0.301655172;1.04067E-05;0.301655172;7.38537E-06;4.374;0.1328125;4.374;0.937988281;4.374;0.585449219;4.374;40.85366058;4.374;9.695121765;4.374;-2.621951342
0.30212069;1.04067E-05;0.30212069;1.02388E-05;4.38075;0.139648438;4.38075;0.970703125;4.38075;0.5546875;4.38075;41.89024353;4.38075;9.817073822;4.38075;-2.439024448
0.302586207;1.19173E-05;0.302586207;1.37636E-05;4.3875;0.122558594;4.3875;1.00390625;4.3875;0.529785156;4.3875;41.64634323;4.3875;12.56097603;4.3875;-4.329268456
0.303051724;1.2253E-05;0.303051724;1.46029E-05;4.39425;0.118652344;4.39425;1.005371094;4.39425;0.494140625;4.39425;40.36585617;4.39425;14.20731735;4.39425;-5.121951103
0.303517241;1.05745E-05;0.303517241;1.32601E-05;4.401;0.122558594;4.401;0.971191406;4.401;0.465332031;4.401;41.21951294;4.401;15.36585426;4.401;-5.121951103
0.303982759;9.9031E-06;0.303982759;1.25887E-05;4.40775;0.119140625;4.40775;0.966308594;4.40775;0.45703125;4.40775;46.09756088;4.40775;17.19512177;4.40775;-7.195122242
0.304448276;9.06386E-06;0.304448276;1.35958E-05;4.4145;0.118164063;4.4145;0.963867188;4.4145;0.456054688;4.4145;51.76829529;4.4145;19.0853672;4.4145;-10.54878044
0.304913793;8.39246E-06;0.304913793;1.46029E-05;4.42125;0.123535156;4.42125;0.955078125;4.42125;0.4453125;4.42125;54.32926941;4.42125;19.45121956;4.42125;-11.82926846
0.30537931;6.54612E-06;0.30537931;1.561E-05;4.428;0.134277344;4.428;0.973632813;4.428;0.440917969;4.428;55;4.428;20.06097603;4.428;-12.43902493
0.305844828;4.19623E-06;0.305844828;1.49386E-05;4.43475;0.111816406;4.43475;0.973144531;4.43475;0.428710938;4.43475;47.01219559;4.43475;20.30487823;4.43475;-10.73170757
0.306310345;3.18914E-06;0.306310345;1.32601E-05;4.4415;0.09765625;4.4415;0.913085938;4.4415;0.430664063;4.4415;37.74390411;4.4415;17.92683029;4.4415;-6.463414669
0.306775862;4.53193E-06;0.306775862;1.42672E-05;4.44825;0.092773438;4.44825;0.897460938;4.44825;0.467285156;4.44825;31.89024544;4.44825;15.36585426;4.44825;-2.317073107
0.307241379;7.55322E-06;0.307241379;1.64492E-05;4.455;0.106445313;4.455;0.869628906;4.455;0.485351563;4.455;28.65853691;4.455;12.43902493;4.455;-0.365853667
0.307706897;8.22461E-06;0.307706897;1.59457E-05;4.46175;0.103027344;4.46175;0.872070313;4.46175;0.508300781;4.46175;28.10975647;4.46175;10.9146347;4.46175;-0.548780501
0.308172414;7.55322E-06;0.308172414;1.32601E-05;4.4685;0.097167969;4.4685;0.913085938;4.4685;0.508789063;4.4685;29.14634132;4.4685;10;4.4685;-0.609756112
0.308637931;6.37827E-06;0.308637931;1.32601E-05;4.47525;0.091308594;4.47525;0.944335938;4.47525;0.487792969;4.47525;28.29268265;4.47525;9.878048897;4.47525;-0.304878056
0.309103448;4.36408E-06;0.309103448;1.49386E-05;4.482;0.098632813;4.482;0.947265625;4.482;0.468261719;4.482;25.48780632;4.482;10.06097603;4.482;0.182926834
0.309568966;4.53193E-06;0.309568966;1.42672E-05;4.48875;0.096679688;4.48875;0.948242188;4.48875;0.46875;4.48875;23.29268265;4.48875;11.09756088;4.48875;1.036585331
0.310034483;5.70687E-06;0.310034483;1.19173E-05;4.4955;0.074707031;4.4955;0.970214844;4.4955;0.471191406;4.4955;22.19512177;4.4955;11.46341515;4.4955;1.524390221
0.3105;6.21042E-06;0.3105;1.09102E-05;4.50225;0.065917969;4.50225;0.977539063;4.50225;0.447265625;4.50225;18.96341515;4.50225;10.97560978;4.50225;2.439024448
0.310965517;7.21752E-06;0.310965517;1.05745E-05;4.509;0.068847656;4.509;0.985839844;4.509;0.424804688;4.509;14.75609779;4.509;11.64634132;4.509;1.768292665
0.311431034;9.56741E-06;0.311431034;1.02388E-05;4.51575;0.065429688;4.51575;0.964355469;4.51575;0.411621094;4.51575;13.78048801;4.51575;11.58536625;4.51575;0.426829278
0.311896552;1.25887E-05;0.311896552;8.56031E-06;4.5225;0.0625;4.5225;0.965820313;4.5225;0.428222656;4.5225;16.15853691;4.5225;12.43902493;4.5225;-1.890243888
0.312362069;1.25887E-05;0.312362069;6.54612E-06;4.52925;0.060546875;4.52925;0.961425781;4.52925;0.431152344;4.52925;19.32926941;4.52925;13.65853691;4.52925;-3.719512224
0.312827586;1.05745E-05;0.312827586;5.53903E-06;4.536;0.057617188;4.536;0.95703125;4.536;0.439941406;4.536;22.19512177;4.536;13.2926836;4.536;-4.451219559
0.313293103;1.10781E-05;0.313293103;5.53903E-06;4.54275;0.031738281;4.54275;0.96875;4.54275;0.454101563;4.54275;23.65853691;4.54275;12.74390316;4.54275;-4.207317352
0.313758621;1.25887E-05;0.313758621;5.87472E-06;4.5495;0.013183594;4.5495;0.972167969;4.5495;0.454101563;4.5495;22.92683029;4.5495;10.60975647;4.5495;-2.378048897
0.314224138;1.19173E-05;0.314224138;6.54612E-06;4.55625;0.025390625;4.55625;0.973632813;4.55625;0.455078125;4.55625;20.6707325;4.55625;9.085366249;4.55625;-0.182926834
0.314689655;1.09102E-05;0.314689655;7.88891E-06;4.563;0.034667969;4.563;0.983398438;4.563;0.456054688;4.563;17.31707382;4.563;8.536585808;4.563;1.158536553
0.315155172;9.23171E-06;0.315155172;9.23171E-06;4.56975;0.051269531;4.56975;0.971191406;4.56975;0.437988281;4.56975;15.6707325;4.56975;8.048780441;4.56975;1.951219559
0.31562069;8.89601E-06;0.31562069;9.23171E-06;4.5765;0.054199219;4.5765;0.946777344;4.5765;0.429199219;4.5765;12.86585426;4.5765;7.378048897;4.5765;3.048780441
0.316086207;9.23171E-06;0.316086207;6.54612E-06;4.58325;0.074707031;4.58325;0.93359375;4.58325;0.4375;4.58325;12.13414669;4.58325;5.853658676;4.58325;3.841463566
0.316551724;8.22461E-06;0.316551724;3.86053E-06;4.59;0.098632813;4.59;0.921386719;4.59;0.442871094;4.59;12.6219511;4.59;4.207317352;4.59;3.841463566
0.317017241;6.54612E-06;0.317017241;1.84634E-06;4.59675;0.102050781;4.59675;0.913574219;4.59675;0.4375;4.59675;13.47560978;4.59675;2.804877996;4.59675;3.902439117
0.317482759;4.53193E-06;0.317482759;-1.51064E-06;4.6035;0.108398438;4.6035;0.940917969;4.6035;0.419921875;4.6035;13.47560978;4.6035;2.317073107;4.6035;3.597561121
0.317948276;3.86053E-06;0.317948276;-5.20333E-06;4.61025;0.116699219;4.61025;0.946777344;4.61025;0.40234375;4.61025;12.01219559;4.61025;2.682926893;4.61025;4.024390221
0.318413793;6.37827E-06;0.318413793;-6.88182E-06;4.617;0.115234375;4.617;0.921875;4.617;0.411132813;4.617;10.30487823;4.617;3.475609779;4.617;4.329268456
0.31887931;7.88891E-06;0.31887931;-5.20333E-06;4.62375;0.107910156;4.62375;0.914550781;4.62375;0.43359375;4.62375;10;4.62375;5.548780441;4.62375;3.353658676
0.319344828;6.88182E-06;0.319344828;-1.67849E-07;4.6305;0.093261719;4.6305;0.942382813;4.6305;0.459960938;4.6305;11.46341515;4.6305;8.048780441;4.6305;1.829268336
0.319810345;5.87472E-06;0.319810345;3.18914E-06;4.63725;0.080566406;4.63725;0.962402344;4.63725;0.461425781;4.63725;13.23170757;4.63725;9.512195587;4.63725;0.670731723
0.320275862;5.87472E-06;0.320275862;2.51774E-06;4.644;0.055175781;4.644;0.990234375;4.644;0.438964844;4.644;12.98780537;4.644;10.24390221;4.644;0.670731723
0.320741379;6.54612E-06;0.320741379;8.39246E-07;4.65075;0.046875;4.65075;0.987304688;4.65075;0.427246094;4.65075;9.63414669;4.65075;11.58536625;4.65075;1.341463447
0.321206897;7.55322E-06;0.321206897;-5.03548E-07;4.6575;0.034179688;4.6575;0.96484375;4.6575;0.438964844;4.6575;7.13414669;4.6575;13.65853691;4.6575;1.463414669
0.321672414;8.56031E-06;0.321672414;-1.51064E-06;4.66425;0.024902344;4.66425;0.962402344;4.66425;0.453125;4.66425;7.256097794;4.66425;14.14634132;4.66425;2.134146452
0.322137931;1.05745E-05;0.322137931;-1.51064E-06;4.671;0.021484375;4.671;0.96484375;4.671;0.43359375;4.671;8.719511986;4.671;12.3780489;4.671;4.146341324
0.322603448;1.17494E-05;0.322603448;-1.67849E-07;4.67775;0.0234375;4.67775;0.965332031;4.67775;0.412597656;4.67775;7.743902683;4.67775;11.34146404;4.67775;5.121951103
0.323068966;1.05745E-05;0.323068966;5.03548E-07;4.6845;0.031738281;4.6845;0.961914063;4.6845;0.405273438;4.6845;5.060975552;4.6845;10.1219511;4.6845;6.036585331
0.323534483;9.9031E-06;0.323534483;1.17494E-06;4.69125;0.040527344;4.69125;0.951171875;4.69125;0.407714844;4.69125;2.256097555;4.69125;9.268292427;4.69125;6.280488014
0.324;1.05745E-05;0.324;3.52483E-06;4.698;0.04296875;4.698;0.936035156;4.698;0.408691406;4.698;2.439024448;4.698;7.865853786;4.698;5.975609779
0.324465517;1.19173E-05;0.324465517;3.86053E-06;4.70475;0.051269531;4.70475;0.937988281;4.70475;0.416015625;4.70475;4.390244007;4.70475;6.036585331;4.70475;5.731707573
0.324931034;1.57778E-05;0.324931034;3.18914E-06;4.7115;0.053710938;4.7115;0.939941406;4.7115;0.415527344;4.7115;4.756097794;4.7115;5.426829338;4.7115;5.975609779
0.325396552;1.72885E-05;0.325396552;5.87472E-06;4.71825;0.06640625;4.71825;0.931640625;4.71825;0.413085938;4.71825;4.817073345;4.71825;5.121951103;4.71825;6.524390221
0.325862069;1.62814E-05;0.325862069;7.88891E-06;4.725;0.080566406;4.725;0.924316406;4.725;0.408691406;4.725;4.573170662;4.725;4.756097794;4.725;7.13414669
0.326327586;1.76242E-05;0.326327586;6.37827E-06;4.73175;0.086914063;4.73175;0.918457031;4.73175;0.408203125;4.73175;3.353658676;4.73175;4.573170662;4.73175;7.743902683
0.326793103;2.06455E-05;0.326793103;3.52483E-06;4.7385;0.08984375;4.7385;0.904296875;4.7385;0.390625;4.7385;1.097561002;4.7385;3.597561121;4.7385;9.085366249
0.327258621;2.09812E-05;0.327258621;1.84634E-06;4.74525;0.086914063;4.74525;0.897949219;4.74525;0.372070313;4.74525;-1.341463447;4.74525;3.536585331;4.74525;10.7926836
0.327724138;1.98062E-05;0.327724138;2.51774E-06;4.752;0.073242188;4.752;0.902832031;4.752;0.369140625;4.752;-2.621951342;4.752;4.634146214;4.752;11.28048801
0.328189655;1.82956E-05;0.328189655;5.03548E-06;4.75875;0.054199219;4.75875;0.905761719;4.75875;0.361816406;4.75875;-2.01219511;4.75875;5.731707573;4.75875;11.52439022
0.328655172;1.59457E-05;0.328655172;5.87472E-06;4.7655;0.037597656;4.7655;0.903808594;4.7655;0.354980469;4.7655;-0.853658557;4.7655;5.914634228;4.7655;11.21951199
0.32912069;1.51064E-05;0.32912069;4.53193E-06;4.77225;0.03515625;4.77225;0.904785156;4.77225;0.348144531;4.77225;-0.365853667;4.77225;6.585365772;4.77225;9.939024925
0.329586207;1.4435E-05;0.329586207;4.86763E-06;4.779;0.038085938;4.779;0.90625;4.779;0.349121094;4.779;0.121951222;4.779;7.01219511;4.779;8.353658676
0.330051724;1.46029E-05;0.330051724;5.37118E-06;4.78575;0.033203125;4.78575;0.896972656;4.78575;0.353027344;4.78575;0.609756112;4.78575;6.219512463;4.78575;7.439024448
0.330517241;1.46029E-05;0.330517241;5.53903E-06;4.7925;0.0234375;4.7925;0.882324219;4.7925;0.358398438;4.7925;1.158536553;4.7925;5.731707573;4.7925;7.073170662
0.330982759;1.39315E-05;0.330982759;5.03548E-06;4.79925;0.003417969;4.79925;0.873535156;4.79925;0.370605469;4.79925;2.804877996;4.79925;5;4.79925;6.524390221
0.331448276;1.19173E-05;0.331448276;4.69978E-06;4.806;0.007324219;4.806;0.88671875;4.806;0.377441406;4.806;4.024390221;4.806;3.841463566;4.806;6.097560883
0.331913793;8.89601E-06;0.331913793;5.03548E-06;4.81275;0.034667969;4.81275;0.893066406;4.81275;0.360351563;4.81275;2.682926893;4.81275;3.109756231;4.81275;6.097560883
0.33237931;7.88891E-06;0.33237931;7.21752E-06;4.8195;0.05859375;4.8195;0.874511719;4.8195;0.33984375;4.8195;0.182926834;4.8195;2.01219511;4.8195;6.585365772
0.332844828;9.56741E-06;0.332844828;9.23171E-06;4.82625;0.071777344;4.82625;0.859863281;4.82625;0.349609375;4.82625;-2.378048897;4.82625;2.378048897;4.82625;6.890244007
0.333310345;1.25887E-05;0.333310345;9.23171E-06;4.833;0.087890625;4.833;0.859375;4.833;0.362304688;4.833;-3.414634228;4.833;3.231707335;4.833;6.280488014
0.333775862;1.39315E-05;0.333775862;7.55322E-06;4.83975;0.114257813;4.83975;0.854003906;4.83975;0.358398438;4.83975;-2.865853786;4.83975;2.804877996;4.83975;5.853658676
0.334241379;1.29244E-05;0.334241379;5.70687E-06;4.8465;0.1171875;4.8465;0.85546875;4.8465;0.33984375;4.8465;-1.158536553;4.8465;2.5;4.8465;5.670732021
0.334706897;1.02388E-05;0.334706897;3.86053E-06;4.85325;0.102050781;4.85325;0.862304688;4.85325;0.324707031;4.85325;-1.097561002;4.85325;2.926829338;4.85325;6.036585331
0.335172414;9.23171E-06;0.335172414;4.19623E-06;4.86;0.094238281;4.86;0.862304688;4.86;0.315917969;4.86;-1.341463447;4.86;4.695122242;4.86;5.548780441
0.335637931;1.04067E-05;0.335637931;6.37827E-06;4.86675;0.08203125;4.86675;0.856445313;4.86675;0.31640625;4.86675;-1.585365891;4.86675;5.48780489;4.86675;5.304878235
0.336103448;1.19173E-05;0.336103448;6.21042E-06;4.8735;0.065917969;4.8735;0.863769531;4.8735;0.325195313;4.8735;-0.975609779;4.8735;6.707317352;4.8735;4.573170662
0.336568966;1.32601E-05;0.336568966;5.70687E-06;4.88025;0.063476563;4.88025;0.872070313;4.88025;0.333496094;4.88025;0.060975611;4.88025;7.743902683;4.88025;4.207317352
0.337034483;1.46029E-05;0.337034483;6.54612E-06;4.887;0.059082031;4.887;0.885253906;4.887;0.342773438;4.887;0.609756112;4.887;9.451219559;4.887;2.682926893
0.3375;1.32601E-05;0.3375;5.20333E-06;4.89375;0.060546875;4.89375;0.886230469;4.89375;0.348144531;4.89375;1.036585331;4.89375;10.48780537;4.89375;1.219512224
0.337965517;1.12459E-05;0.337965517;1.84634E-06;4.9005;0.060546875;4.9005;0.881835938;4.9005;0.3515625;4.9005;1.524390221;4.9005;10;4.9005;0.975609779
0.338431034;1.05745E-05;0.338431034;1.17494E-06;4.90725;0.061523438;4.90725;0.884765625;4.90725;0.353515625;4.90725;1.829268336;4.90725;9.695121765;4.90725;0.731707335
0.338896552;1.05745E-05;0.338896552;5.20333E-06;4.914;0.065429688;4.914;0.890136719;4.914;0.353515625;4.914;1.219512224;4.914;8.902439117;4.914;2.195122004
0.339362069;9.9031E-06;0.339362069;9.23171E-06;4.92075;0.075683594;4.92075;0.878417969;4.92075;0.3515625;4.92075;0.914634168;4.92075;8.231707573;4.92075;3.658536673
0.339827586;9.9031E-06;0.339827586;9.56741E-06;4.9275;0.073242188;4.9275;0.86328125;4.9275;0.360351563;4.9275;1.951219559;4.9275;8.048780441;4.9275;4.207317352
0.340293103;1.12459E-05;0.340293103;7.55322E-06;4.93425;0.076171875;4.93425;0.860351563;4.93425;0.363769531;4.93425;3.658536673;4.93425;7.804878235;4.93425;3.414634228
0.340758621;1.12459E-05;0.340758621;6.54612E-06;4.941;0.084472656;4.941;0.856933594;4.941;0.361816406;4.941;4.329268456;4.941;7.804878235;4.941;2.926829338
0.341224138;9.23171E-06;0.341224138;6.88182E-06;4.94775;0.095703125;4.94775;0.8515625;4.94775;0.345214844;4.94775;4.878048897;4.94775;8.048780441;4.94775;1.829268336
0.341689655;8.39246E-06;0.341689655;7.21752E-06;4.9545;0.087890625;4.9545;0.853027344;4.9545;0.333984375;4.9545;3.475609779;4.9545;8.719511986;4.9545;0.792682946
0.342155172;9.23171E-06;0.342155172;6.54612E-06;4.96125;0.075195313;4.96125;0.854003906;4.96125;0.33984375;4.96125;1.585365891;4.96125;9.939024925;4.96125;0.609756112
0.34262069;1.05745E-05;0.34262069;7.21752E-06;4.968;0.062988281;4.968;0.860839844;4.968;0.354003906;4.968;1.158536553;4.968;10.48780537;4.968;1.219512224
0.343086207;1.19173E-05;0.343086207;7.72107E-06;4.97475;0.038085938;4.97475;0.880371094;4.97475;0.360351563;4.97475;1.707317114;4.97475;9.085366249;4.97475;2.621951342
0.343551724;1.19173E-05;0.343551724;7.88891E-06;4.9815;0.025878906;4.9815;0.896972656;4.9815;0.352539063;4.9815;2.195122004;4.9815;7.195122242;4.9815;3.841463566
0.344017241;1.30922E-05;0.344017241;7.72107E-06;4.98825;0.024902344;4.98825;0.912597656;4.98825;0.348144531;4.98825;1.951219559;4.98825;6.158536911;4.98825;3.963414669
0.344482759;1.39315E-05;0.344482759;6.21042E-06;4.995;0.034179688;4.995;0.917480469;4.995;0.337402344;4.995;0.914634168;4.995;5.609755993;4.995;4.024390221
0.344948276;1.30922E-05;0.344948276;4.53193E-06;5.00175;0.058105469;5.00175;0.905761719;5.00175;0.33203125;5.00175;0;5.00175;6.646341801;5.00175;3.353658676
0.345413793;1.32601E-05;0.345413793;2.51774E-06;5.0085;0.073730469;5.0085;0.891601563;5.0085;0.335449219;5.0085;0.609756112;5.0085;7.5;5.0085;2.5
0.34587931;1.59457E-05;0.34587931;3.86053E-06;5.01525;0.0859375;5.01525;0.876464844;5.01525;0.346679688;5.01525;1.463414669;5.01525;7.682927132;5.01525;2.195122004
0.346344828;1.72885E-05;0.346344828;4.69978E-06;5.022;0.075195313;5.022;0.876953125;5.022;0.354980469;5.022;2.865853786;5.022;7.439024448;5.022;1.768292665
0.346810345;1.76242E-05;0.346810345;3.52483E-06;5.02875;0.064453125;5.02875;0.858886719;5.02875;0.350585938;5.02875;3.109756231;5.02875;6.951219559;5.02875;1.646341443
0.347275862;1.66171E-05;0.347275862;1.17494E-06;5.0355;0.076660156;5.0355;0.852050781;5.0355;0.356933594;5.0355;2.865853786;5.0355;6.036585331;5.0355;1.402438998
0.347741379;1.35958E-05;0.347741379;-6.71397E-07;5.04225;0.091796875;5.04225;0.862792969;5.04225;0.359375;5.04225;2.98780489;5.04225;4.817073345;5.04225;1.402438998
0.348206897;1.12459E-05;0.348206897;-2.34989E-06;5.049;0.096191406;5.049;0.879882813;5.049;0.358886719;5.049;2.378048897;5.049;3.536585331;5.049;2.134146452
0.348672414;1.05745E-05;0.348672414;-2.18204E-06;5.05575;0.1015625;5.05575;0.875976563;5.05575;0.35546875;5.05575;2.01219511;5.05575;2.378048897;5.05575;3.414634228
0.349137931;1.14137E-05;0.349137931;-8.39246E-07;5.0625;0.090332031;5.0625;0.871582031;5.0625;0.364746094;5.0625;2.560975552;5.0625;1.036585331;5.0625;4.817073345
0.349603448;1.29244E-05;0.349603448;8.39246E-07;5.06925;0.088867188;5.06925;0.876953125;5.06925;0.376953125;5.06925;4.268292904;5.06925;0.853658557;5.06925;5.365853786
0.350068966;1.39315E-05;0.350068966;1.17494E-06;5.076;0.093261719;5.076;0.876953125;5.076;0.376953125;5.076;5.609755993;5.076;0.670731723;5.076;5.182927132
0.350534483;1.2253E-05;0.350534483;5.03548E-07;5.08275;0.090332031;5.08275;0.878417969;5.08275;0.37890625;5.08275;5.426829338;5.08275;1.646341443;5.08275;4.634146214
0.351;9.73526E-06;0.351;1.17494E-06;5.0895;0.077636719;5.0895;0.875976563;5.0895;0.380371094;5.0895;5.182927132;5.0895;2.256097555;5.0895;4.451219559
0.351465517;7.88891E-06;0.351465517;1.84634E-06;5.09625;0.071777344;5.09625;0.876953125;5.09625;0.379882813;5.09625;4.451219559;5.09625;1.707317114;5.09625;5.365853786
0.351931034;7.72107E-06;0.351931034;4.19623E-06;5.103;0.09375;5.103;0.88671875;5.103;0.392089844;5.103;3.536585331;5.103;2.98780489;5.103;4.390244007
0.352396552;6.54612E-06;0.352396552;4.86763E-06;5.10975;0.116699219;5.10975;0.905273438;5.10975;0.385742188;5.10975;2.621951342;5.10975;5.670732021;5.10975;1.402438998
0.352862069;4.19623E-06;0.352862069;4.53193E-06;5.1165;0.145996094;5.1165;0.917480469;5.1165;0.381347656;5.1165;1.707317114;5.1165;6.463414669;5.1165;0.121951222
0.353327586;3.86053E-06;0.353327586;5.87472E-06;5.12325;0.15234375;5.12325;0.92578125;5.12325;0.375488281;5.12325;1.585365891;5.12325;7.01219511;5.12325;1.097561002
0.353793103;5.70687E-06;0.353793103;6.04257E-06;5.13;0.12890625;5.13;0.94140625;5.13;0.36328125;5.13;2.195122004;5.13;8.048780441;5.13;1.951219559
0.354258621;7.04967E-06;0.354258621;5.20333E-06;5.13675;0.095214844;5.13675;0.948242188;5.13675;0.344726563;5.13675;2.926829338;5.13675;9.146341324;5.13675;1.829268336
0.354724138;7.21752E-06;0.354724138;4.53193E-06;5.1435;0.080078125;5.1435;0.934570313;5.1435;0.336425781;5.1435;2.256097555;5.1435;10.9146347;5.1435;0.670731723
0.355189655;6.54612E-06;0.355189655;5.20333E-06;5.15025;0.085449219;5.15025;0.920898438;5.15025;0.34375;5.15025;0.731707335;5.15025;11.82926846;5.15025;-2.01219511
0.355655172;6.54612E-06;0.355655172;6.04257E-06;5.157;0.088867188;5.157;0.9140625;5.157;0.349121094;5.157;-0.548780501;5.157;11.28048801;5.157;-4.695122242
